// Data mode  : Full
// Transmission speed  : 100Hz
// Accelerometer sensor's range  : 2g
// Gyroscope sensor's range  : 250dps
//
//ARTIFACT,NUM,DATE,ACC_X,ACC_Y,ACC_Z,GYRO_X,GYRO_Y,GYRO_Z,EOG_L,EOG_R,EOG_H,EOG_V
,1,2016/11/29 04:46:44.70,-1569,3585,-16041,-128,117,-102,-212,-564,352,388
,2,2016/11/29 04:46:44.71,-1501,3639,-16066,-132,93,-78,-153,-621,468,387
,3,2016/11/29 04:46:44.72,-1580,3632,-16048,-135,98,-69,-231,-619,388,425
,4,2016/11/29 04:46:44.73,-1609,3677,-16131,-148,94,-64,-145,-558,413,351
,5,2016/11/29 04:46:44.74,-1518,3688,-16051,-149,82,-61,-210,-656,446,433
,6,2016/11/29 04:46:44.75,-1680,3701,-16095,-164,79,-38,-203,-558,355,380
,7,2016/11/29 04:46:44.76,-1575,3672,-16078,-158,82,-38,-143,-606,463,374
,8,2016/11/29 04:46:44.77,-1544,3664,-16099,-145,49,-54,-237,-620,383,428
,9,2016/11/29 04:46:44.78,-1484,3660,-16097,-133,33,-43,-144,-558,414,351
,10,2016/11/29 04:46:44.79,-1583,3670,-16107,-130,36,-9,-208,-653,445,430
,11,2016/11/29 04:46:44.80,-1580,3698,-16077,-105,10,-4,-216,-573,357,394
,12,2016/11/29 04:46:44.81,-1660,3674,-16072,-72,17,3,-151,-616,465,383
,13,2016/11/29 04:46:44.82,-1583,3708,-16069,-82,13,18,-233,-620,387,426
,14,2016/11/29 04:46:44.83,-1609,3641,-16053,-51,18,35,-156,-569,413,362
,15,2016/11/29 04:46:44.84,-1650,3689,-16036,-29,18,43,-211,-653,442,432
,16,2016/11/29 04:46:44.85,-1599,3658,-16102,-22,27,55,-213,-563,350,388
,17,2016/11/29 04:46:44.86,-1726,3687,-16061,-8,36,60,-159,-617,458,388
,18,2016/11/29 04:46:44.87,-1575,3719,-16041,-21,37,64,-235,-613,378,424
,19,2016/11/29 04:46:44.88,-1705,3710,-16071,-21,42,72,-153,-556,403,354
,20,2016/11/29 04:46:44.89,-1662,3695,-16046,-20,42,62,-225,-659,434,442
,21,2016/11/29 04:46:44.90,-1582,3672,-16089,6,77,58,-219,-567,348,393
,22,2016/11/29 04:46:44.91,-1665,3687,-16068,-2,79,47,-162,-618,456,390
,23,2016/11/29 04:46:44.92,-1653,3677,-16033,-26,77,60,-253,-628,375,440
,24,2016/11/29 04:46:44.93,-1570,3678,-16070,-27,86,35,-162,-563,401,362
,25,2016/11/29 04:46:44.94,-1572,3667,-16062,-43,94,8,-217,-654,437,435
,26,2016/11/29 04:46:44.95,-1592,3755,-16064,-43,97,0,-219,-570,351,394
,27,2016/11/29 04:46:44.96,-1606,3675,-16055,-60,94,-9,-148,-611,463,379
,28,2016/11/29 04:46:44.97,-1642,3766,-16033,-69,113,-51,-233,-615,382,424
,29,2016/11/29 04:46:44.98,-1575,3707,-15997,-75,109,-60,-158,-569,411,363
,30,2016/11/29 04:46:44.99,-1540,3764,-16070,-78,110,-65,-212,-655,443,433
,31,2016/11/29 04:46:45.00,-1578,3703,-16043,-66,97,-83,-218,-564,346,391
,32,2016/11/29 04:46:45.01,-1565,3690,-16026,-66,116,-97,-164,-621,457,392
,33,2016/11/29 04:46:45.02,-1611,3675,-16015,-31,109,-107,-240,-620,380,430
,34,2016/11/29 04:46:45.03,-1582,3694,-16032,-31,100,-103,-154,-564,410,359
,35,2016/11/29 04:46:45.04,-1582,3732,-16073,-41,125,-98,-212,-665,453,438
,36,2016/11/29 04:46:45.05,-1567,3582,-16156,-44,142,-101,-198,-568,370,383
,37,2016/11/29 04:46:45.06,-1640,3535,-16121,-18,132,-90,-122,-618,496,370
,38,2016/11/29 04:46:45.07,-1637,3611,-16051,-6,119,-52,-211,-625,414,418
,39,2016/11/29 04:46:45.08,-1609,3667,-16105,-1,107,-24,-122,-561,439,341
,40,2016/11/29 04:46:45.09,-1546,3660,-16099,-23,105,-27,-192,-653,461,422
,41,2016/11/29 04:46:45.10,-1641,3692,-16030,-50,92,-11,-207,-570,363,388
,42,2016/11/29 04:46:45.11,-1556,3712,-16043,-90,108,-35,-140,-613,473,376
,43,2016/11/29 04:46:45.12,-1491,3715,-16093,-148,102,-18,-227,-613,386,420
,44,2016/11/29 04:46:45.13,-1547,3720,-16149,-177,130,-30,-152,-563,411,357
,45,2016/11/29 04:46:45.14,-1567,3683,-16078,-194,164,-36,-205,-649,444,427
,46,2016/11/29 04:46:45.15,-1579,3645,-16172,-174,146,-46,-207,-560,353,383
,47,2016/11/29 04:46:45.16,-1498,3619,-16192,-130,122,-32,-142,-617,475,379
,48,2016/11/29 04:46:45.17,-1597,3622,-16178,-95,82,-38,-213,-612,399,412
,49,2016/11/29 04:46:45.18,-1558,3675,-16115,-40,50,-18,-125,-556,431,340
,50,2016/11/29 04:46:45.19,-1591,3694,-16050,-8,34,-19,-191,-658,467,424
,51,2016/11/29 04:46:45.20,-1553,3698,-15991,26,26,-21,-191,-560,369,375
,52,2016/11/29 04:46:45.21,-1437,3708,-15987,55,36,-8,-131,-612,481,371
,53,2016/11/29 04:46:45.22,-1547,3602,-16006,83,34,10,-225,-622,397,423
,54,2016/11/29 04:46:45.23,-1601,3591,-16016,90,36,16,-133,-562,429,347
,55,2016/11/29 04:46:45.24,-1609,3529,-16050,96,11,61,-187,-657,470,422
,56,2016/11/29 04:46:45.25,-1573,3566,-16042,58,10,82,-195,-573,378,384
,57,2016/11/29 04:46:45.26,-1497,3555,-16124,39,-8,130,-126,-617,491,371
,58,2016/11/29 04:46:45.27,-1589,3556,-16115,3,-14,149,-214,-618,404,416
,59,2016/11/29 04:46:45.28,-1503,3570,-16125,-43,-32,164,-136,-569,433,352
,60,2016/11/29 04:46:45.29,-1649,3561,-16098,-67,-32,175,-187,-654,467,420
,61,2016/11/29 04:46:45.30,-1573,3634,-16144,-99,-27,169,-190,-562,372,376
,62,2016/11/29 04:46:45.31,-1563,3693,-16081,-133,-26,143,-133,-624,491,378
,63,2016/11/29 04:46:45.32,-1612,3687,-16031,-154,-30,111,-211,-618,407,414
,64,2016/11/29 04:46:45.33,-1543,3664,-16036,-142,-15,74,-127,-566,439,346
,65,2016/11/29 04:46:45.34,-1577,3618,-16071,-115,6,51,-193,-666,473,429
,66,2016/11/29 04:46:45.35,-1666,3658,-16018,-109,-3,5,-190,-568,378,379
,67,2016/11/29 04:46:45.36,-1597,3676,-16044,-70,-17,-11,-126,-619,493,372
,68,2016/11/29 04:46:45.37,-1652,3709,-16003,-79,-8,-5,-219,-625,406,422
,69,2016/11/29 04:46:45.38,-1497,3660,-15963,-87,21,-25,-130,-565,435,347
,70,2016/11/29 04:46:45.39,-1541,3637,-15992,-95,71,-41,-189,-655,466,422
,71,2016/11/29 04:46:45.40,-1562,3607,-16062,-109,59,-38,-196,-566,370,381
,72,2016/11/29 04:46:45.41,-1632,3604,-16122,-117,56,-25,-131,-613,482,372
,73,2016/11/29 04:46:45.42,-1579,3618,-16129,-102,73,-26,-215,-615,400,415
,74,2016/11/29 04:46:45.43,-1590,3587,-16108,-66,91,-36,-129,-569,440,349
,75,2016/11/29 04:46:45.44,-1530,3663,-16086,-60,67,-43,-185,-658,473,421
,76,2016/11/29 04:46:45.45,-1488,3665,-16110,-52,93,-43,-189,-567,378,378
,77,2016/11/29 04:46:45.46,-1546,3675,-16101,-68,55,-99,-126,-624,498,375
,78,2016/11/29 04:46:45.47,-1479,3693,-16091,-56,56,-121,-211,-619,408,415
,79,2016/11/29 04:46:45.48,-1535,3659,-16068,-71,64,-136,-126,-566,440,346
,80,2016/11/29 04:46:45.49,-1452,3680,-16060,-74,67,-127,-186,-660,474,423
,81,2016/11/29 04:46:45.50,-1529,3688,-16044,-89,54,-147,-190,-565,375,377
,82,2016/11/29 04:46:45.51,-1563,3650,-16028,-84,44,-148,-122,-618,496,370
,83,2016/11/29 04:46:45.52,-1528,3680,-16034,-87,52,-141,-208,-621,413,414
,84,2016/11/29 04:46:45.53,-1493,3716,-16050,-116,26,-136,-121,-568,447,344
,85,2016/11/29 04:46:45.54,-1555,3614,-16074,-121,21,-118,-176,-660,484,418
,86,2016/11/29 04:46:45.55,-1530,3655,-16070,-139,10,-112,-175,-573,398,374
,87,2016/11/29 04:46:45.56,-1460,3639,-16102,-162,-7,-97,-98,-620,522,359
,88,2016/11/29 04:46:45.57,-1437,3696,-16125,-181,-15,-68,-178,-617,439,397
,89,2016/11/29 04:46:45.58,-1469,3682,-16144,-174,-49,-57,-101,-568,467,334
,90,2016/11/29 04:46:45.59,-1497,3696,-16133,-196,-87,-57,-164,-653,489,408
,91,2016/11/29 04:46:45.60,-1549,3731,-16100,-197,-116,-63,-175,-560,385,367
,92,2016/11/29 04:46:45.61,-1496,3765,-16049,-192,-119,-67,-118,-616,498,367
,93,2016/11/29 04:46:45.62,-1540,3769,-16123,-176,-165,-79,-207,-610,403,408
,94,2016/11/29 04:46:45.63,-1558,3773,-16071,-149,-170,-81,-126,-563,437,344
,95,2016/11/29 04:46:45.64,-1618,3724,-16051,-132,-187,-75,-191,-662,471,426
,96,2016/11/29 04:46:45.65,-1564,3776,-16012,-114,-197,-60,-194,-568,374,381
,97,2016/11/29 04:46:45.66,-1603,3795,-16073,-66,-203,-53,-134,-622,488,378
,98,2016/11/29 04:46:45.67,-1575,3787,-16049,-64,-205,-40,-224,-625,401,424
,99,2016/11/29 04:46:45.68,-1619,3712,-16073,-32,-202,-23,-139,-567,428,353
,100,2016/11/29 04:46:45.69,-1594,3718,-16057,-1,-207,-22,-208,-660,452,434
,101,2016/11/29 04:46:45.70,-1632,3724,-16089,20,-215,-3,-211,-574,363,392
,102,2016/11/29 04:46:45.71,-1576,3674,-16085,17,-241,18,-152,-625,473,388
,103,2016/11/29 04:46:45.72,-1638,3720,-16154,-11,-240,18,-236,-624,388,430
,104,2016/11/29 04:46:45.73,-1529,3808,-16129,-12,-261,8,-150,-577,427,363
,105,2016/11/29 04:46:45.74,-1551,3711,-16118,-29,-288,3,-208,-662,454,435
,106,2016/11/29 04:46:45.75,-1590,3746,-16106,-17,-320,-29,-204,-567,363,385
,107,2016/11/29 04:46:45.76,-1473,3721,-16106,-15,-343,-37,-146,-626,480,386
,108,2016/11/29 04:46:45.77,-1621,3666,-16042,-15,-338,-63,-224,-620,396,422
,109,2016/11/29 04:46:45.78,-1664,3688,-16066,-9,-359,-52,-127,-568,441,347
,110,2016/11/29 04:46:45.79,-1634,3683,-16020,21,-352,-25,-184,-663,479,423
,111,2016/11/29 04:46:45.80,-1681,3735,-15972,43,-338,-24,-182,-568,386,375
,112,2016/11/29 04:46:45.81,-1732,3689,-16021,21,-300,-9,-125,-625,500,375
,113,2016/11/29 04:46:45.82,-1714,3668,-15995,24,-248,19,-210,-627,417,418
,114,2016/11/29 04:46:45.83,-1766,3658,-16034,26,-217,40,-122,-569,447,345
,115,2016/11/29 04:46:45.84,-1795,3635,-16068,24,-197,60,-184,-657,473,420
,116,2016/11/29 04:46:45.85,-1816,3666,-16086,28,-194,86,-188,-570,382,379
,117,2016/11/29 04:46:45.86,-1745,3685,-16145,17,-186,94,-121,-619,498,370
,118,2016/11/29 04:46:45.87,-1768,3670,-16125,-4,-170,104,-198,-614,416,406
,119,2016/11/29 04:46:45.88,-1774,3722,-16085,5,-135,83,-111,-568,457,339
,120,2016/11/29 04:46:45.89,-1714,3741,-16032,34,-135,18,-172,-654,482,413
,121,2016/11/29 04:46:45.90,-1762,3742,-16043,34,-154,-26,-175,-561,386,368
,122,2016/11/29 04:46:45.91,-1781,3741,-16039,63,-141,-69,-121,-624,503,372
,123,2016/11/29 04:46:45.92,-1764,3690,-16092,59,-136,-126,-214,-616,402,415
,124,2016/11/29 04:46:45.93,-1782,3609,-16080,71,-156,-153,-135,-563,428,349
,125,2016/11/29 04:46:45.94,-1769,3564,-15961,87,-193,-150,-211,-658,447,434
,126,2016/11/29 04:46:45.95,-1869,3567,-15973,100,-241,-128,-209,-563,354,386
,127,2016/11/29 04:46:45.96,-1836,3535,-16035,90,-233,-89,-152,-619,467,385
,128,2016/11/29 04:46:45.97,-1835,3573,-16076,65,-244,-89,-238,-621,383,429
,129,2016/11/29 04:46:45.98,-1809,3542,-16065,10,-239,-60,-146,-563,417,354
,130,2016/11/29 04:46:45.99,-1808,3581,-16179,-70,-232,-52,-221,-653,432,437
,131,2016/11/29 04:46:46.00,-1833,3533,-16178,-151,-198,-37,-216,-566,350,391
,132,2016/11/29 04:46:46.01,-1780,3574,-16105,-173,-206,-4,-175,-620,445,397
,133,2016/11/29 04:46:46.02,-1739,3577,-16171,-179,-189,-5,-268,-614,346,441
,134,2016/11/29 04:46:46.03,-1831,3614,-16199,-161,-223,20,-189,-571,382,380
,135,2016/11/29 04:46:46.04,-1852,3676,-16206,-124,-271,41,-279,-659,380,469
,136,2016/11/29 04:46:46.05,-1903,3769,-16122,-74,-302,35,-269,-570,301,419
,137,2016/11/29 04:46:46.06,-1861,3843,-16098,-10,-347,1,-255,-632,377,443
,138,2016/11/29 04:46:46.07,-1832,3894,-16080,46,-379,-6,-338,-624,286,481
,139,2016/11/29 04:46:46.08,-1790,3952,-16076,93,-398,-35,-258,-576,318,417
,140,2016/11/29 04:46:46.09,-1842,3851,-16037,130,-426,-55,-348,-671,323,509
,141,2016/11/29 04:46:46.10,-1817,3878,-16005,171,-454,-82,-319,-575,256,447
,142,2016/11/29 04:46:46.11,-1878,3870,-16087,222,-491,-105,-295,-630,335,462
,143,2016/11/29 04:46:46.12,-1957,3927,-16088,279,-551,-111,-363,-631,268,497
,144,2016/11/29 04:46:46.13,-1907,3915,-16098,303,-578,-112,-271,-579,308,425
,145,2016/11/29 04:46:46.14,-1826,3916,-16095,328,-597,-131,-356,-674,318,515
,146,2016/11/29 04:46:46.15,-1953,3976,-16075,331,-576,-152,-314,-584,270,449
,147,2016/11/29 04:46:46.16,-1771,3967,-16045,343,-575,-174,-290,-642,352,466
,148,2016/11/29 04:46:46.17,-1763,3969,-16090,380,-581,-204,-352,-635,283,493
,149,2016/11/29 04:46:46.18,-1798,3884,-16095,401,-564,-222,-262,-584,322,423
,150,2016/11/29 04:46:46.19,-1776,3934,-16007,436,-588,-244,-353,-673,320,513
,151,2016/11/29 04:46:46.20,-1805,3856,-16049,492,-605,-248,-316,-583,267,449
,152,2016/11/29 04:46:46.21,-1784,3827,-15999,595,-645,-237,-295,-634,339,464
,153,2016/11/29 04:46:46.22,-1908,3738,-16128,677,-682,-229,-364,-630,266,497
,154,2016/11/29 04:46:46.23,-1823,3686,-16136,731,-755,-192,-272,-576,304,424
,155,2016/11/29 04:46:46.24,-1807,3706,-16024,792,-811,-161,-353,-666,313,509
,156,2016/11/29 04:46:46.25,-1833,3659,-15978,789,-824,-108,-310,-573,263,441
,157,2016/11/29 04:46:46.26,-1868,3648,-16060,797,-861,-62,-283,-627,344,455
,158,2016/11/29 04:46:46.27,-1823,3515,-16041,815,-890,5,-337,-620,283,478
,159,2016/11/29 04:46:46.28,-1858,3457,-16233,836,-915,63,-248,-569,321,408
,160,2016/11/29 04:46:46.29,-1904,3416,-16167,810,-969,138,-330,-655,325,492
,161,2016/11/29 04:46:46.30,-1947,3358,-16089,812,-1010,220,-285,-561,276,423
,162,2016/11/29 04:46:46.31,-1915,3400,-16167,831,-1077,285,-264,-613,349,438
,163,2016/11/29 04:46:46.32,-1943,3413,-16141,804,-1097,315,-317,-610,293,463
,164,2016/11/29 04:46:46.33,-1948,3443,-16208,830,-1156,357,-218,-558,340,388
,165,2016/11/29 04:46:46.34,-2019,3442,-16103,815,-1157,390,-286,-646,360,466
,166,2016/11/29 04:46:46.35,-1993,3381,-16074,812,-1221,410,-236,-549,313,392
,167,2016/11/29 04:46:46.36,-2075,3349,-16051,816,-1233,430,-195,-601,406,398
,168,2016/11/29 04:46:46.37,-2126,3386,-16092,854,-1279,436,-255,-592,337,423
,169,2016/11/29 04:46:46.38,-2264,3171,-16109,860,-1310,481,-159,-541,382,350
,170,2016/11/29 04:46:46.39,-2252,3180,-16057,875,-1321,504,-234,-632,398,433
,171,2016/11/29 04:46:46.40,-2320,3222,-16093,880,-1339,515,-202,-540,338,371
,172,2016/11/29 04:46:46.41,-2319,3150,-15984,923,-1365,554,-161,-602,441,381
,173,2016/11/29 04:46:46.42,-2383,3114,-16113,949,-1367,591,-216,-593,377,404
,174,2016/11/29 04:46:46.43,-2386,3147,-15989,938,-1347,622,-126,-542,416,334
,175,2016/11/29 04:46:46.44,-2348,3094,-16125,951,-1340,653,-209,-631,422,420
,176,2016/11/29 04:46:46.45,-2444,3063,-16092,954,-1340,684,-185,-542,357,363
,177,2016/11/29 04:46:46.46,-2574,3045,-16041,946,-1304,701,-154,-600,446,377
,178,2016/11/29 04:46:46.47,-2472,3000,-16030,976,-1305,727,-226,-594,368,410
,179,2016/11/29 04:46:46.48,-2530,2998,-16099,1002,-1307,754,-132,-545,413,338
,180,2016/11/29 04:46:46.49,-2594,2988,-16164,997,-1330,778,-213,-634,421,423
,181,2016/11/29 04:46:46.50,-2584,2929,-16114,1009,-1314,793,-189,-540,351,364
,182,2016/11/29 04:46:46.51,-2702,2964,-16195,1016,-1366,792,-147,-600,453,373
,183,2016/11/29 04:46:46.52,-2791,3013,-16109,1023,-1360,806,-220,-591,371,405
,184,2016/11/29 04:46:46.53,-2765,2949,-16065,1017,-1381,794,-131,-548,417,339
,185,2016/11/29 04:46:46.54,-2819,2820,-16156,1058,-1416,810,-198,-636,438,417
,186,2016/11/29 04:46:46.55,-2872,2854,-16099,1035,-1430,817,-178,-545,367,361
,187,2016/11/29 04:46:46.56,-2936,2824,-16034,985,-1388,795,-133,-603,470,368
,188,2016/11/29 04:46:46.57,-2963,2809,-15950,982,-1401,777,-203,-596,393,399
,189,2016/11/29 04:46:46.58,-2965,2811,-16020,970,-1352,780,-114,-548,434,331
,190,2016/11/29 04:46:46.59,-2969,2795,-16022,964,-1359,735,-190,-636,446,413
,191,2016/11/29 04:46:46.60,-3063,2710,-16090,944,-1327,712,-174,-540,366,357
,192,2016/11/29 04:46:46.61,-3084,2727,-15956,871,-1299,701,-135,-603,468,369
,193,2016/11/29 04:46:46.62,-3274,2688,-16112,852,-1303,680,-213,-597,384,405
,194,2016/11/29 04:46:46.63,-3269,2588,-15994,808,-1268,662,-125,-556,431,340
,195,2016/11/29 04:46:46.64,-3305,2642,-16004,745,-1227,643,-204,-646,442,425
,196,2016/11/29 04:46:46.65,-3255,2564,-16042,723,-1166,650,-191,-552,361,371
,197,2016/11/29 04:46:46.66,-3290,2550,-16036,695,-1116,644,-140,-615,475,377
,198,2016/11/29 04:46:46.67,-3268,2554,-16098,681,-1073,644,-223,-604,381,413
,199,2016/11/29 04:46:46.68,-3360,2537,-16021,641,-1031,617,-132,-557,425,344
,200,2016/11/29 04:46:46.69,-3371,2523,-16048,617,-1009,606,-208,-646,438,427
,201,2016/11/29 04:46:46.70,-3400,2554,-15992,546,-939,581,-199,-550,351,374
,202,2016/11/29 04:46:46.71,-3489,2496,-15954,504,-934,569,-156,-613,457,384
,203,2016/11/29 04:46:46.72,-3514,2457,-15921,460,-890,553,-237,-603,366,420
,204,2016/11/29 04:46:46.73,-3551,2440,-16028,426,-865,532,-152,-562,410,357
,205,2016/11/29 04:46:46.74,-3563,2494,-16009,377,-840,518,-232,-653,421,442
,206,2016/11/29 04:46:46.75,-3560,2501,-16077,340,-833,517,-218,-559,341,388
,207,2016/11/29 04:46:46.76,-3566,2475,-16054,316,-800,478,-178,-622,444,400
,208,2016/11/29 04:46:46.77,-3618,2423,-16023,296,-759,455,-259,-611,352,435
,209,2016/11/29 04:46:46.78,-3695,2438,-16056,297,-765,430,-164,-569,405,366
,210,2016/11/29 04:46:46.79,-3770,2439,-16021,286,-725,410,-244,-657,413,450
,211,2016/11/29 04:46:46.80,-3667,2407,-16061,267,-687,415,-229,-564,335,396
,212,2016/11/29 04:46:46.81,-3673,2446,-16009,257,-681,430,-181,-629,448,405
,213,2016/11/29 04:46:46.82,-3702,2441,-16023,237,-638,418,-262,-616,354,439
,214,2016/11/29 04:46:46.83,-3717,2391,-16024,227,-583,404,-171,-571,400,371
,215,2016/11/29 04:46:46.84,-3662,2302,-16020,203,-572,423,-245,-659,414,452
,216,2016/11/29 04:46:46.85,-3808,2294,-16021,225,-566,439,-235,-563,328,399
,217,2016/11/29 04:46:46.86,-3848,2327,-16003,220,-531,443,-186,-626,440,406
,218,2016/11/29 04:46:46.87,-3779,2399,-16021,198,-496,436,-265,-612,347,438
,219,2016/11/29 04:46:46.88,-3809,2346,-16075,164,-457,409,-182,-571,389,376
,220,2016/11/29 04:46:46.89,-3840,2376,-16052,137,-428,372,-259,-661,402,460
,221,2016/11/29 04:46:46.90,-3872,2395,-16058,99,-411,335,-245,-568,323,406
,222,2016/11/29 04:46:46.91,-3833,2385,-16010,79,-355,301,-199,-638,439,418
,223,2016/11/29 04:46:46.92,-3791,2443,-16046,46,-290,254,-280,-626,346,453
,224,2016/11/29 04:46:46.93,-3777,2406,-16041,45,-257,207,-185,-580,395,382
,225,2016/11/29 04:46:46.94,-3920,2369,-16018,51,-233,193,-258,-668,410,463
,226,2016/11/29 04:46:46.95,-3888,2379,-16050,37,-183,161,-240,-574,334,407
,227,2016/11/29 04:46:46.96,-3840,2354,-16034,30,-158,139,-173,-634,461,403
,228,2016/11/29 04:46:46.97,-3837,2373,-15993,46,-109,109,-249,-621,372,435
,229,2016/11/29 04:46:46.98,-3866,2345,-15964,43,-87,111,-155,-579,424,367
,230,2016/11/29 04:46:46.99,-3783,2368,-15907,45,-56,91,-217,-662,445,439
,231,2016/11/29 04:46:47.00,-3789,2318,-15921,75,-21,89,-210,-565,355,387
,232,2016/11/29 04:46:47.01,-3771,2326,-15965,67,-8,51,-150,-629,479,389
,233,2016/11/29 04:46:47.02,-3834,2281,-15977,50,14,35,-224,-615,391,419
,234,2016/11/29 04:46:47.03,-3877,2279,-15981,32,34,10,-133,-578,445,355
,235,2016/11/29 04:46:47.04,-3786,2235,-16033,2,73,5,-199,-664,465,431
,236,2016/11/29 04:46:47.05,-3871,2248,-16045,-23,81,4,-189,-567,378,378
,237,2016/11/29 04:46:47.06,-3845,2207,-16019,-60,78,3,-141,-629,488,385
,238,2016/11/29 04:46:47.07,-3869,2159,-16081,-99,89,33,-224,-612,388,418
,239,2016/11/29 04:46:47.08,-3848,2202,-16046,-132,125,38,-132,-567,435,349
,240,2016/11/29 04:46:47.09,-3843,2201,-15997,-176,123,60,-203,-656,453,429
,241,2016/11/29 04:46:47.10,-3906,2227,-16029,-222,154,60,-198,-564,366,381
,242,2016/11/29 04:46:47.11,-3765,2167,-16018,-239,194,65,-138,-627,489,382
,243,2016/11/29 04:46:47.12,-3853,2188,-16061,-246,211,65,-222,-613,391,417
,244,2016/11/29 04:46:47.13,-3728,2287,-16020,-256,216,73,-130,-570,440,350
,245,2016/11/29 04:46:47.14,-3836,2342,-15940,-250,235,44,-191,-653,462,422
,246,2016/11/29 04:46:47.15,-3703,2407,-15961,-281,292,7,-186,-559,373,372
,247,2016/11/29 04:46:47.16,-3765,2364,-15985,-321,322,-41,-128,-626,498,377
,248,2016/11/29 04:46:47.17,-3686,2344,-15996,-341,347,-51,-210,-608,398,409
,249,2016/11/29 04:46:47.18,-3731,2305,-16045,-357,383,-78,-126,-569,443,347
,250,2016/11/29 04:46:47.19,-3766,2263,-16047,-375,400,-81,-205,-657,452,431
,251,2016/11/29 04:46:47.20,-3790,2267,-16044,-389,433,-70,-199,-563,364,381
,252,2016/11/29 04:46:47.21,-3718,2269,-16009,-388,455,-76,-153,-631,478,392
,253,2016/11/29 04:46:47.22,-3657,2257,-16031,-383,500,-70,-240,-614,374,427
,254,2016/11/29 04:46:47.23,-3647,2332,-16006,-410,529,-39,-150,-572,422,361
,255,2016/11/29 04:46:47.24,-3601,2305,-16002,-457,547,-21,-226,-661,435,443
,256,2016/11/29 04:46:47.25,-3643,2315,-16009,-507,584,-4,-218,-565,347,391
,257,2016/11/29 04:46:47.26,-3711,2392,-15947,-571,619,27,-161,-629,468,395
,258,2016/11/29 04:46:47.27,-3594,2371,-15977,-592,651,20,-252,-617,365,434
,259,2016/11/29 04:46:47.28,-3588,2374,-16035,-645,694,25,-162,-580,418,371
,260,2016/11/29 04:46:47.29,-3588,2369,-15997,-679,693,29,-229,-663,434,446
,261,2016/11/29 04:46:47.30,-3579,2414,-16016,-714,717,27,-226,-569,343,397
,262,2016/11/29 04:46:47.31,-3539,2430,-15999,-735,744,38,-178,-633,455,405
,263,2016/11/29 04:46:47.32,-3524,2418,-16013,-736,745,38,-258,-614,356,436
,264,2016/11/29 04:46:47.33,-3432,2468,-16014,-792,771,46,-169,-576,407,372
,265,2016/11/29 04:46:47.34,-3457,2427,-16046,-806,783,43,-240,-662,422,451
,266,2016/11/29 04:46:47.35,-3477,2506,-15985,-848,801,48,-227,-567,340,397
,267,2016/11/29 04:46:47.36,-3388,2497,-15998,-837,812,66,-174,-636,462,405
,268,2016/11/29 04:46:47.37,-3392,2503,-15987,-840,824,54,-256,-619,363,437
,269,2016/11/29 04:46:47.38,-3373,2604,-16007,-863,830,61,-159,-578,419,368
,270,2016/11/29 04:46:47.39,-3364,2611,-16051,-857,848,69,-234,-666,432,450
,271,2016/11/29 04:46:47.40,-3362,2654,-16031,-883,867,53,-227,-572,345,399
,272,2016/11/29 04:46:47.41,-3314,2666,-16019,-897,879,60,-166,-635,469,400
,273,2016/11/29 04:46:47.42,-3290,2662,-15988,-939,887,63,-255,-619,364,437
,274,2016/11/29 04:46:47.43,-3242,2742,-15981,-940,906,75,-165,-577,412,371
,275,2016/11/29 04:46:47.44,-3271,2731,-15981,-938,920,73,-228,-659,431,443
,276,2016/11/29 04:46:47.45,-3274,2700,-16024,-974,926,89,-224,-566,342,395
,277,2016/11/29 04:46:47.46,-3244,2758,-15993,-1028,958,109,-170,-636,466,403
,278,2016/11/29 04:46:47.47,-3212,2747,-15909,-1022,991,150,-252,-622,370,437
,279,2016/11/29 04:46:47.48,-3127,2797,-15950,-1027,1023,163,-161,-587,426,374
,280,2016/11/29 04:46:47.49,-3117,2876,-15961,-1056,1059,190,-226,-671,445,448
,281,2016/11/29 04:46:47.50,-3094,2930,-16046,-1061,1082,174,-215,-572,357,393
,282,2016/11/29 04:46:47.51,-3130,2949,-16006,-1069,1080,204,-164,-640,476,402
,283,2016/11/29 04:46:47.52,-3098,2939,-15957,-1068,1140,191,-246,-622,376,434
,284,2016/11/29 04:46:47.53,-2993,3128,-16026,-1071,1111,179,-145,-581,436,363
,285,2016/11/29 04:46:47.54,-2955,3035,-15991,-1102,1173,168,-216,-667,451,441
,286,2016/11/29 04:46:47.55,-3022,3206,-16060,-1106,1238,117,-210,-570,360,390
,287,2016/11/29 04:46:47.56,-2967,3158,-15981,-1119,1203,94,-148,-632,484,390
,288,2016/11/29 04:46:47.57,-2879,3155,-16003,-1111,1243,81,-238,-614,376,426
,289,2016/11/29 04:46:47.58,-2917,3229,-16049,-1122,1225,57,-148,-577,429,362
,290,2016/11/29 04:46:47.59,-2760,3281,-16014,-1107,1250,30,-214,-663,449,438
,291,2016/11/29 04:46:47.60,-2775,3275,-16017,-1083,1256,9,-214,-571,357,392
,292,2016/11/29 04:46:47.61,-2812,3295,-16041,-1098,1285,-36,-158,-639,481,398
,293,2016/11/29 04:46:47.62,-2724,3373,-16062,-1093,1272,-53,-243,-620,377,431
,294,2016/11/29 04:46:47.63,-2753,3357,-16090,-1083,1284,-73,-158,-585,427,371
,295,2016/11/29 04:46:47.64,-2601,3441,-16027,-1089,1252,-104,-230,-669,439,449
,296,2016/11/29 04:46:47.65,-2603,3405,-15988,-1074,1263,-137,-223,-570,347,396
,297,2016/11/29 04:46:47.66,-2632,3532,-16007,-1087,1279,-170,-175,-637,462,406
,298,2016/11/29 04:46:47.67,-2610,3517,-16014,-1094,1282,-206,-262,-616,354,439
,299,2016/11/29 04:46:47.68,-2513,3515,-15983,-1099,1237,-227,-164,-575,411,369
,300,2016/11/29 04:46:47.69,-2374,3544,-16025,-1084,1249,-242,-233,-664,431,448
,301,2016/11/29 04:46:47.70,-2332,3596,-16096,-1100,1199,-262,-223,-571,348,397
,302,2016/11/29 04:46:47.71,-2334,3605,-16052,-1076,1149,-266,-163,-636,473,399
,303,2016/11/29 04:46:47.72,-2246,3645,-16070,-1071,1115,-279,-250,-616,366,433
,304,2016/11/29 04:46:47.73,-2220,3643,-16096,-1033,1067,-254,-158,-577,419,367
,305,2016/11/29 04:46:47.74,-2237,3681,-16101,-979,1031,-274,-226,-658,432,442
,306,2016/11/29 04:46:47.75,-2279,3743,-16173,-954,991,-262,-222,-568,346,395
,307,2016/11/29 04:46:47.76,-2171,3680,-16079,-900,988,-262,-165,-638,473,401
,308,2016/11/29 04:46:47.77,-2205,3756,-16042,-821,918,-235,-243,-613,370,428
,309,2016/11/29 04:46:47.78,-2174,3743,-16022,-755,855,-217,-153,-582,429,367
,310,2016/11/29 04:46:47.79,-2110,3813,-15988,-732,859,-198,-224,-666,442,445
,311,2016/11/29 04:46:47.80,-2123,3854,-15998,-687,837,-198,-214,-568,354,391
,312,2016/11/29 04:46:47.81,-2093,3888,-16052,-671,833,-205,-167,-640,473,403
,313,2016/11/29 04:46:47.82,-2079,3924,-16051,-688,828,-221,-253,-617,364,435
,314,2016/11/29 04:46:47.83,-2055,3962,-16083,-719,870,-239,-158,-575,417,366
,315,2016/11/29 04:46:47.84,-2028,3957,-16003,-719,881,-263,-232,-661,429,446
,316,2016/11/29 04:46:47.85,-2049,3931,-16027,-727,880,-262,-225,-568,343,396
,317,2016/11/29 04:46:47.86,-1942,3897,-16134,-702,858,-254,-165,-634,469,399
,318,2016/11/29 04:46:47.87,-2001,3888,-16119,-653,829,-231,-256,-615,359,435
,319,2016/11/29 04:46:47.88,-1947,3894,-16083,-620,776,-213,-168,-576,408,372
,320,2016/11/29 04:46:47.89,-1919,3955,-16071,-562,728,-197,-233,-656,423,444
,321,2016/11/29 04:46:47.90,-1940,3907,-16059,-508,685,-156,-228,-564,336,396
,322,2016/11/29 04:46:47.91,-1849,3978,-16005,-462,641,-143,-168,-635,467,401
,323,2016/11/29 04:46:47.92,-1860,3966,-15993,-388,609,-119,-248,-612,364,430
,324,2016/11/29 04:46:47.93,-1885,3941,-15996,-335,564,-85,-162,-580,418,371
,325,2016/11/29 04:46:47.94,-1821,3903,-16070,-306,517,-37,-228,-668,440,448
,326,2016/11/29 04:46:47.95,-1883,3931,-16044,-273,448,4,-212,-570,358,391
,327,2016/11/29 04:46:47.96,-1834,3933,-16012,-256,438,32,-158,-641,483,399
,328,2016/11/29 04:46:47.97,-1771,3934,-15981,-221,379,78,-241,-620,379,430
,329,2016/11/29 04:46:47.98,-1874,3886,-15982,-215,384,120,-138,-579,441,358
,330,2016/11/29 04:46:47.99,-1907,3865,-16019,-178,377,146,-210,-663,453,436
,331,2016/11/29 04:46:48.00,-1885,3923,-16038,-144,341,173,-207,-567,360,387
,332,2016/11/29 04:46:48.01,-1902,3960,-16063,-110,331,190,-151,-636,485,393
,333,2016/11/29 04:46:48.02,-1900,4011,-16022,-116,315,187,-242,-618,376,430
,334,2016/11/29 04:46:48.03,-1862,3973,-16003,-107,304,194,-149,-583,434,366
,335,2016/11/29 04:46:48.04,-1888,3892,-16021,-77,311,178,-217,-662,445,439
,336,2016/11/29 04:46:48.05,-1909,3971,-16128,-78,291,160,-214,-570,356,392
,337,2016/11/29 04:46:48.06,-1899,3912,-16064,-32,252,125,-157,-638,481,397
,338,2016/11/29 04:46:48.07,-1926,3976,-16066,-6,208,111,-240,-610,370,425
,339,2016/11/29 04:46:48.08,-1765,4029,-16015,-7,194,80,-154,-577,423,365
,340,2016/11/29 04:46:48.09,-1923,4007,-15921,-19,188,36,-220,-662,442,441
,341,2016/11/29 04:46:48.10,-1880,3979,-15997,-16,195,3,-204,-565,361,384
,342,2016/11/29 04:46:48.11,-1899,3871,-15994,-16,170,-6,-150,-640,490,395
,343,2016/11/29 04:46:48.12,-1862,3889,-16027,-21,170,-13,-236,-620,384,428
,344,2016/11/29 04:46:48.13,-1898,3850,-16060,7,159,-21,-138,-580,442,359
,345,2016/11/29 04:46:48.14,-1868,3808,-16022,26,117,-3,-214,-664,450,439
,346,2016/11/29 04:46:48.15,-1929,3801,-16013,55,113,18,-209,-570,361,389
,347,2016/11/29 04:46:48.16,-1886,3816,-16020,51,108,30,-157,-639,482,398
,348,2016/11/29 04:46:48.17,-1909,3797,-16028,53,121,52,-248,-618,370,433
,349,2016/11/29 04:46:48.18,-1897,3796,-15972,66,127,65,-154,-585,431,369
,350,2016/11/29 04:46:48.19,-1963,3781,-15974,44,139,61,-218,-664,446,441
,351,2016/11/29 04:46:48.20,-1974,3794,-16046,50,147,80,-212,-573,361,392
,352,2016/11/29 04:46:48.21,-1929,3771,-16016,50,174,57,-154,-643,489,398
,353,2016/11/29 04:46:48.22,-1848,3768,-16036,29,143,54,-234,-615,381,424
,354,2016/11/29 04:46:48.23,-1793,3826,-16039,37,148,32,-147,-584,437,365
,355,2016/11/29 04:46:48.24,-1802,3821,-16011,8,117,-4,-220,-666,446,443
,356,2016/11/29 04:46:48.25,-1941,3803,-16069,39,123,-19,-209,-567,358,388
,357,2016/11/29 04:46:48.26,-1911,3827,-16036,36,105,-18,-163,-646,483,404
,358,2016/11/29 04:46:48.27,-1871,3810,-16021,26,76,-48,-248,-624,376,436
,359,2016/11/29 04:46:48.28,-1979,3714,-16025,36,69,-62,-146,-590,444,368
,360,2016/11/29 04:46:48.29,-1921,3800,-16024,17,53,-76,-214,-671,457,442
,361,2016/11/29 04:46:48.30,-1910,3722,-16003,19,65,-59,-204,-573,369,388
,362,2016/11/29 04:46:48.31,-1943,3747,-16023,29,44,-57,-140,-643,503,391
,363,2016/11/29 04:46:48.32,-1928,3686,-15996,41,39,-30,-227,-620,393,423
,364,2016/11/29 04:46:48.33,-1889,3689,-16061,28,51,-17,-132,-588,456,360
,365,2016/11/29 04:46:48.34,-1954,3753,-16036,49,50,2,-197,-665,468,431
,366,2016/11/29 04:46:48.35,-1875,3685,-16060,28,45,23,-192,-575,383,383
,367,2016/11/29 04:46:48.36,-1891,3664,-16079,19,38,54,-129,-643,514,386
,368,2016/11/29 04:46:48.37,-1898,3730,-16049,28,16,49,-205,-610,405,407
,369,2016/11/29 04:46:48.38,-1882,3720,-16118,13,9,51,-117,-580,463,348
,370,2016/11/29 04:46:48.39,-2001,3694,-16063,15,-9,67,-186,-660,474,423
,371,2016/11/29 04:46:48.40,-1962,3768,-16039,25,-28,51,-179,-565,386,372
,372,2016/11/29 04:46:48.41,-1959,3708,-16059,23,-17,47,-123,-635,512,379
,373,2016/11/29 04:46:48.42,-2006,3764,-16040,15,-31,55,-202,-600,398,401
,374,2016/11/29 04:46:48.43,-1897,3705,-16036,11,-36,44,-99,-563,464,331
,375,2016/11/29 04:46:48.44,-1938,3693,-16039,9,-32,33,-174,-648,474,411
,376,2016/11/29 04:46:48.45,-2034,3664,-16030,10,-31,26,-171,-556,385,363
,377,2016/11/29 04:46:48.46,-2014,3688,-16022,15,-41,48,-118,-631,513,374
,378,2016/11/29 04:46:48.47,-2003,3675,-15979,24,-46,46,-213,-607,394,410
,379,2016/11/29 04:46:48.48,-2010,3699,-15956,51,-15,45,-130,-580,450,355
,380,2016/11/29 04:46:48.49,-2069,3709,-16043,26,-26,60,-209,-660,451,434
,381,2016/11/29 04:46:48.50,-2012,3634,-15975,35,2,67,-212,-576,364,394
,382,2016/11/29 04:46:48.51,-2004,3684,-16034,36,17,53,-168,-649,481,408
,383,2016/11/29 04:46:48.52,-2035,3717,-16098,36,27,65,-254,-620,366,437
,384,2016/11/29 04:46:48.53,-1956,3677,-16041,41,25,53,-168,-592,424,380
,385,2016/11/29 04:46:48.54,-2049,3728,-16001,10,48,55,-230,-670,440,450
,386,2016/11/29 04:46:48.55,-2072,3697,-16062,44,34,27,-208,-575,367,391
,387,2016/11/29 04:46:48.56,-2104,3707,-16077,38,39,29,-142,-649,507,395
,388,2016/11/29 04:46:48.57,-2021,3709,-16068,33,46,-10,-216,-619,403,417
,389,2016/11/29 04:46:48.58,-2021,3717,-16028,32,44,-11,-118,-581,463,349
,390,2016/11/29 04:46:48.59,-2062,3682,-16035,28,55,-18,-190,-660,470,425
,391,2016/11/29 04:46:48.60,-2132,3650,-16014,29,74,-40,-183,-568,385,375
,392,2016/11/29 04:46:48.61,-2061,3696,-16082,13,77,-81,-124,-639,515,381
,393,2016/11/29 04:46:48.62,-2052,3627,-16047,14,105,-95,-209,-613,404,411
,394,2016/11/29 04:46:48.63,-1981,3700,-16040,-5,91,-126,-117,-582,465,349
,395,2016/11/29 04:46:48.64,-1986,3685,-16007,-21,108,-127,-187,-657,470,422
,396,2016/11/29 04:46:48.65,-2033,3703,-16037,-46,97,-159,-183,-566,383,374
,397,2016/11/29 04:46:48.66,-1926,3732,-16038,-64,100,-190,-124,-640,516,382
,398,2016/11/29 04:46:48.67,-2079,3670,-16090,-78,99,-210,-201,-606,405,403
,399,2016/11/29 04:46:48.68,-2025,3664,-16035,-82,89,-241,-114,-578,464,346
,400,2016/11/29 04:46:48.69,-2125,3633,-16095,-65,87,-231,-178,-660,482,419
,401,2016/11/29 04:46:48.70,-1923,3653,-16023,-78,67,-249,-157,-562,405,359
,402,2016/11/29 04:46:48.71,-1988,3630,-16000,-57,66,-227,-95,-637,542,366
,403,2016/11/29 04:46:48.72,-2056,3642,-16045,-68,72,-221,-178,-608,430,393
,404,2016/11/29 04:46:48.73,-2033,3600,-16107,-51,79,-201,-84,-575,491,329
,405,2016/11/29 04:46:48.74,-2005,3572,-16078,-23,63,-163,-160,-657,497,408
,406,2016/11/29 04:46:48.75,-1991,3616,-15946,-18,43,-142,-155,-564,409,359
,407,2016/11/29 04:46:48.76,-2048,3632,-15982,-26,53,-111,-93,-636,543,364
,408,2016/11/29 04:46:48.77,-1991,3612,-16049,-40,51,-79,-165,-594,429,379
,409,2016/11/29 04:46:48.78,-1946,3678,-16068,-68,59,-81,-11,-438,427,224
,410,2016/11/29 04:46:48.79,-1926,3719,-16054,-116,39,-97,12,-444,456,216
,411,2016/11/29 04:46:48.80,-2048,3711,-16073,-174,67,-109,53,-335,388,141
,412,2016/11/29 04:46:48.81,-1926,3707,-16030,-221,117,-115,131,-407,538,138
,413,2016/11/29 04:46:48.82,-1913,3675,-16071,-225,114,-136,10,-403,413,196
,414,2016/11/29 04:46:48.83,-1976,3646,-16168,-189,111,-131,91,-360,451,134
,415,2016/11/29 04:46:48.84,-1937,3670,-16127,-149,96,-126,-22,-484,462,253
,416,2016/11/29 04:46:48.85,-1961,3652,-16121,-107,84,-124,-53,-415,362,234
,417,2016/11/29 04:46:48.86,-1961,3707,-16051,-57,74,-111,-156,-590,434,373
,418,2016/11/29 04:46:48.87,-1927,3707,-15988,-25,63,-102,-352,-654,302,503
,419,2016/11/29 04:46:48.88,-1895,3669,-15951,11,66,-109,-313,-656,343,484
,420,2016/11/29 04:46:48.89,-1963,3600,-15962,29,81,-85,-362,-728,366,545
,421,2016/11/29 04:46:48.90,-1893,3555,-15999,44,89,-51,-296,-617,321,456
,422,2016/11/29 04:46:48.91,-1983,3563,-16028,70,83,-29,-198,-673,475,435
,423,2016/11/29 04:46:48.92,-1980,3580,-16035,54,47,10,-258,-639,381,448
,424,2016/11/29 04:46:48.93,-1996,3565,-16024,29,38,41,-157,-608,451,382
,425,2016/11/29 04:46:48.94,-1926,3569,-16032,12,49,83,-226,-680,454,453
,426,2016/11/29 04:46:48.95,-1900,3563,-16059,2,18,89,-213,-589,376,401
,427,2016/11/29 04:46:48.96,-2020,3615,-16074,-40,22,125,-153,-662,509,407
,428,2016/11/29 04:46:48.97,-1975,3577,-16145,-48,11,121,-218,-625,407,421
,429,2016/11/29 04:46:48.98,-2013,3616,-16140,-68,5,143,-113,-596,483,354
,430,2016/11/29 04:46:48.99,-2073,3682,-16123,-109,-2,116,-172,-667,495,419
,431,2016/11/29 04:46:49.00,-1980,3732,-15986,-150,3,109,-155,-570,415,362
,432,2016/11/29 04:46:49.01,-1948,3680,-16105,-162,-10,90,-102,-646,544,374
,433,2016/11/29 04:46:49.02,-1979,3662,-16003,-123,-3,45,-180,-613,433,396
,434,2016/11/29 04:46:49.03,-1991,3658,-16053,-122,11,22,-81,-581,500,331
,435,2016/11/29 04:46:49.04,-1995,3632,-16031,-99,-6,-4,-150,-660,510,405
,436,2016/11/29 04:46:49.05,-1997,3686,-15991,-75,-20,-11,-139,-567,428,353
,437,2016/11/29 04:46:49.06,-2057,3735,-15966,-88,19,-24,-76,-634,558,355
,438,2016/11/29 04:46:49.07,-2016,3682,-15988,-109,22,-38,-162,-601,439,381
,439,2016/11/29 04:46:49.08,-2002,3695,-15996,-107,43,-57,-74,-571,497,322
,440,2016/11/29 04:46:49.09,-2029,3655,-16046,-95,43,-43,-138,-644,506,391
,441,2016/11/29 04:46:49.10,-1985,3671,-16051,-104,48,-32,-128,-557,429,342
,442,2016/11/29 04:46:49.11,-2010,3609,-16121,-75,44,-28,-64,-632,568,348
,443,2016/11/29 04:46:49.12,-2059,3618,-16060,-70,50,-9,-132,-599,467,365
,444,2016/11/29 04:46:49.13,-1976,3614,-16072,-72,38,-6,-36,-572,536,304
,445,2016/11/29 04:46:49.14,-2002,3656,-16048,-69,59,0,-103,-646,543,374
,446,2016/11/29 04:46:49.15,-1982,3671,-16047,-79,55,-5,-99,-551,452,325
,447,2016/11/29 04:46:49.16,-2044,3646,-15995,-85,46,-10,-61,-627,566,344
,448,2016/11/29 04:46:49.17,-1946,3656,-16013,-90,65,-17,-152,-593,441,372
,449,2016/11/29 04:46:49.18,-1954,3623,-16030,-120,67,-23,-66,-565,499,315
,450,2016/11/29 04:46:49.19,-1986,3706,-16024,-119,65,-51,-137,-644,507,390
,451,2016/11/29 04:46:49.20,-1994,3649,-16043,-134,64,-55,-126,-554,428,340
,452,2016/11/29 04:46:49.21,-2011,3712,-16004,-151,59,-56,-64,-628,564,346
,453,2016/11/29 04:46:49.22,-1935,3654,-16008,-177,56,-62,-146,-597,451,371
,454,2016/11/29 04:46:49.23,-2059,3640,-16000,-177,48,-60,-57,-571,514,314
,455,2016/11/29 04:46:49.24,-1956,3662,-16032,-189,63,-49,-131,-644,513,387
,456,2016/11/29 04:46:49.25,-1975,3682,-16040,-183,58,-44,-130,-550,420,340
,457,2016/11/29 04:46:49.26,-1950,3733,-16029,-179,53,-53,-84,-625,541,354
,458,2016/11/29 04:46:49.27,-2028,3714,-16025,-196,38,-56,-166,-591,425,378
,459,2016/11/29 04:46:49.28,-1924,3708,-16035,-195,28,-57,-76,-567,491,321
,460,2016/11/29 04:46:49.29,-1992,3715,-16042,-195,34,-52,-137,-644,507,390
,461,2016/11/29 04:46:49.30,-2011,3693,-16051,-179,39,-42,-115,-550,435,332
,462,2016/11/29 04:46:49.31,-1975,3667,-16040,-142,39,-38,-56,-628,572,342
,463,2016/11/29 04:46:49.32,-1992,3657,-16034,-131,34,-24,-140,-593,453,366
,464,2016/11/29 04:46:49.33,-1962,3742,-16057,-110,16,-9,-53,-564,511,308
,465,2016/11/29 04:46:49.34,-1944,3727,-16050,-85,14,3,-124,-644,520,384
,466,2016/11/29 04:46:49.35,-1979,3687,-16022,-68,-4,22,-110,-552,442,331
,467,2016/11/29 04:46:49.36,-2041,3711,-16095,-57,-8,38,-52,-625,573,338
,468,2016/11/29 04:46:49.37,-1981,3685,-16089,-38,-6,38,-142,-592,450,367
,469,2016/11/29 04:46:49.38,-2029,3694,-16020,-46,-8,75,-53,-569,516,311
,470,2016/11/29 04:46:49.39,-2083,3732,-16027,-26,-13,82,-113,-642,529,377
,471,2016/11/29 04:46:49.40,-2063,3689,-16045,-15,6,94,-96,-549,453,322
,472,2016/11/29 04:46:49.41,-2090,3712,-15980,-36,7,105,-40,-624,584,332
,473,2016/11/29 04:46:49.42,-2041,3736,-16033,-10,19,97,-122,-587,465,354
,474,2016/11/29 04:46:49.43,-2024,3742,-16006,-25,48,88,-38,-566,528,302
,475,2016/11/29 04:46:49.44,-1980,3718,-16038,-1,53,72,-116,-640,524,378
,476,2016/11/29 04:46:49.45,-2024,3759,-16052,-18,62,48,-111,-547,436,329
,477,2016/11/29 04:46:49.46,-1981,3778,-16011,-25,80,30,-65,-626,561,345
,478,2016/11/29 04:46:49.47,-2051,3731,-16052,-11,82,22,-149,-591,442,370
,479,2016/11/29 04:46:49.48,-1965,3700,-16033,-28,77,-12,-57,-567,510,312
,480,2016/11/29 04:46:49.49,-1958,3705,-16032,-29,84,-10,-134,-646,512,390
,481,2016/11/29 04:46:49.50,-1995,3670,-16068,-21,93,-35,-124,-553,429,338
,482,2016/11/29 04:46:49.51,-1985,3663,-16062,-25,92,-41,-63,-628,565,345
,483,2016/11/29 04:46:49.52,-1997,3656,-16035,-32,76,-39,-141,-592,451,366
,484,2016/11/29 04:46:49.53,-2018,3666,-16112,-38,55,-43,-46,-565,519,305
,485,2016/11/29 04:46:49.54,-2008,3667,-16026,-40,52,-30,-118,-636,518,377
,486,2016/11/29 04:46:49.55,-1954,3716,-16084,-42,69,-30,-114,-548,434,331
,487,2016/11/29 04:46:49.56,-1970,3703,-16027,-55,53,-31,-65,-627,562,346
,488,2016/11/29 04:46:49.57,-1948,3655,-16068,-56,61,-34,-148,-589,441,368
,489,2016/11/29 04:46:49.58,-1968,3705,-16032,-60,53,-22,-62,-566,504,314
,490,2016/11/29 04:46:49.59,-2005,3650,-16063,-58,64,-19,-134,-644,510,389
,491,2016/11/29 04:46:49.60,-1937,3741,-16049,-82,30,0,-119,-551,432,335
,492,2016/11/29 04:46:49.61,-1950,3686,-15993,-70,54,6,-66,-633,567,349
,493,2016/11/29 04:46:49.62,-1996,3678,-16057,-85,55,2,-144,-598,454,371
,494,2016/11/29 04:46:49.63,-1956,3710,-16051,-58,51,-17,-42,-571,529,306
,495,2016/11/29 04:46:49.64,-1957,3669,-16014,-55,63,-10,-101,-643,542,372
,496,2016/11/29 04:46:49.65,-1971,3682,-16001,-45,63,-6,-85,-549,464,317
,497,2016/11/29 04:46:49.66,-1916,3717,-16041,-12,60,4,-39,-625,586,332
,498,2016/11/29 04:46:49.67,-1944,3671,-16011,-30,72,-18,-128,-589,461,358
,499,2016/11/29 04:46:49.68,-1945,3695,-16072,-28,94,-18,-41,-568,527,304
,500,2016/11/29 04:46:49.69,-1961,3591,-16064,6,76,-12,-105,-640,535,372
,501,2016/11/29 04:46:49.70,-1946,3631,-15994,13,81,6,-90,-551,461,320
,502,2016/11/29 04:46:49.71,-2037,3594,-15954,52,48,8,-35,-629,594,332
,503,2016/11/29 04:46:49.72,-2022,3640,-16004,27,31,9,-117,-588,471,352
,504,2016/11/29 04:46:49.73,-2021,3634,-16060,-3,29,4,-37,-569,532,303
,505,2016/11/29 04:46:49.74,-1877,3706,-16105,-55,21,18,-113,-642,529,377
,506,2016/11/29 04:46:49.75,-1935,3607,-16136,-94,4,20,-98,-547,449,322
,507,2016/11/29 04:46:49.76,-1940,3653,-16095,-139,-9,17,-49,-627,578,338
,508,2016/11/29 04:46:49.77,-1884,3624,-16080,-148,-9,37,-133,-588,455,360
,509,2016/11/29 04:46:49.78,-1920,3556,-16058,-135,3,39,-44,-563,519,303
,510,2016/11/29 04:46:49.79,-1962,3590,-16102,-87,-12,75,-114,-638,524,376
,511,2016/11/29 04:46:49.80,-2039,3635,-16106,-55,-21,78,-94,-546,452,320
,512,2016/11/29 04:46:49.81,-1865,3663,-16097,-7,-35,105,-38,-623,585,330
,513,2016/11/29 04:46:49.82,-1947,3644,-16029,-1,-57,114,-123,-586,463,354
,514,2016/11/29 04:46:49.83,-1925,3623,-15998,50,-54,128,-35,-567,532,301
,515,2016/11/29 04:46:49.84,-1934,3635,-15935,78,-51,118,-106,-638,532,372
,516,2016/11/29 04:46:49.85,-1902,3652,-15943,83,-57,128,-100,-547,447,323
,517,2016/11/29 04:46:49.86,-1935,3631,-15947,100,-32,124,-55,-625,570,340
,518,2016/11/29 04:46:49.87,-1944,3596,-16041,108,-29,134,-135,-588,453,361
,519,2016/11/29 04:46:49.88,-2092,3594,-15950,109,-24,132,-46,-572,526,309
,520,2016/11/29 04:46:49.89,-1989,3630,-16037,84,-9,129,-117,-644,527,380
,521,2016/11/29 04:46:49.90,-2004,3627,-16046,36,-5,130,-101,-552,451,326
,522,2016/11/29 04:46:49.91,-1978,3639,-16077,0,2,102,-58,-632,574,345
,523,2016/11/29 04:46:49.92,-1961,3615,-16053,-41,14,96,-141,-591,450,366
,524,2016/11/29 04:46:49.93,-2032,3616,-16061,-69,30,90,-50,-571,521,310
,525,2016/11/29 04:46:49.94,-2059,3639,-16091,-74,28,70,-122,-646,524,384
,526,2016/11/29 04:46:49.95,-2006,3608,-16008,-101,50,57,-101,-555,454,328
,527,2016/11/29 04:46:49.96,-1998,3701,-15968,-94,55,38,-44,-632,588,338
,528,2016/11/29 04:46:49.97,-2047,3612,-16031,-72,54,21,-123,-591,468,357
,529,2016/11/29 04:46:49.98,-2009,3549,-16051,-40,62,20,-36,-570,534,303
,530,2016/11/29 04:46:49.99,-1981,3565,-16038,-20,45,16,-104,-640,536,372
,531,2016/11/29 04:46:50.00,-2016,3611,-16060,1,33,13,-80,-546,466,313
,532,2016/11/29 04:46:50.01,-1980,3636,-15994,-20,32,7,-17,-626,609,321
,533,2016/11/29 04:46:50.02,-2056,3629,-16044,-35,52,22,-88,-585,497,336
,534,2016/11/29 04:46:50.03,-1889,3580,-16000,-30,81,20,7,-562,569,277
,535,2016/11/29 04:46:50.04,-1941,3565,-16121,-28,72,21,-71,-630,559,350
,536,2016/11/29 04:46:50.05,-1838,3545,-16101,-40,89,22,-69,-538,469,303
,537,2016/11/29 04:46:50.06,-1993,3589,-16129,-31,78,42,-32,-619,587,325
,538,2016/11/29 04:46:50.07,-2002,3588,-16130,-22,34,44,-121,-579,458,350
,539,2016/11/29 04:46:50.08,-2030,3644,-16056,-30,34,31,-35,-562,527,298
,540,2016/11/29 04:46:50.09,-2019,3692,-16002,-49,36,23,-112,-635,523,373
,541,2016/11/29 04:46:50.10,-1965,3690,-16027,-67,50,-3,-100,-544,444,322
,542,2016/11/29 04:46:50.11,-1986,3701,-16022,-68,72,-27,-55,-625,570,340
,543,2016/11/29 04:46:50.12,-2017,3692,-16029,-108,80,-48,-135,-590,455,362
,544,2016/11/29 04:46:50.13,-1901,3645,-16018,-129,64,-74,-45,-574,529,309
,545,2016/11/29 04:46:50.14,-2043,3618,-16063,-109,90,-83,-124,-644,520,384
,546,2016/11/29 04:46:50.15,-1970,3636,-16022,-126,90,-88,-112,-553,441,332
,547,2016/11/29 04:46:50.16,-1934,3603,-16046,-138,98,-89,-70,-633,563,351
,548,2016/11/29 04:46:50.17,-1954,3650,-16051,-146,110,-88,-147,-591,444,369
,549,2016/11/29 04:46:50.18,-1948,3605,-16069,-129,86,-78,-54,-572,518,313
,550,2016/11/29 04:46:50.19,-1881,3659,-16078,-118,76,-92,-136,-640,504,388
,551,2016/11/29 04:46:50.20,-1867,3589,-16073,-96,50,-91,-123,-548,425,335
,552,2016/11/29 04:46:50.21,-1910,3592,-16090,-110,46,-72,-76,-632,556,354
,553,2016/11/29 04:46:50.22,-1993,3624,-16057,-109,26,-68,-150,-592,442,371
,554,2016/11/29 04:46:50.23,-1956,3640,-16051,-134,2,-63,-44,-573,529,308
,555,2016/11/29 04:46:50.24,-1967,3617,-16017,-121,2,-47,-113,-640,527,376
,556,2016/11/29 04:46:50.25,-1945,3601,-16036,-123,-26,-29,-96,-545,449,320
,557,2016/11/29 04:46:50.26,-2012,3647,-16090,-131,-40,-5,-56,-627,571,341
,558,2016/11/29 04:46:50.27,-1926,3604,-16095,-112,-37,23,-132,-588,456,360
,559,2016/11/29 04:46:50.28,-1968,3645,-16057,-117,-57,40,-29,-570,541,299
,560,2016/11/29 04:46:50.29,-1936,3641,-15997,-115,-59,83,-93,-637,544,365
,561,2016/11/29 04:46:50.30,-2003,3630,-16046,-90,-62,86,-73,-545,472,309
,562,2016/11/29 04:46:50.31,-1995,3663,-16050,-81,-46,97,-24,-625,601,324
,563,2016/11/29 04:46:50.32,-2034,3704,-16040,-63,-38,120,-102,-582,480,342
,564,2016/11/29 04:46:50.33,-1996,3697,-16037,-77,-25,124,-15,-563,548,289
,565,2016/11/29 04:46:50.34,-2019,3696,-16030,-48,-14,129,-94,-630,536,362
,566,2016/11/29 04:46:50.35,-2001,3641,-16008,-43,17,127,-80,-540,460,310
,567,2016/11/29 04:46:50.36,-1974,3676,-16063,-33,41,103,-41,-625,584,333
,568,2016/11/29 04:46:50.37,-1951,3730,-16010,-24,37,95,-120,-580,460,350
,569,2016/11/29 04:46:50.38,-2044,3686,-16057,-37,41,67,-29,-565,536,297
,570,2016/11/29 04:46:50.39,-1990,3718,-16069,-25,49,38,-113,-635,522,374
,571,2016/11/29 04:46:50.40,-1995,3659,-16050,-33,45,29,-102,-547,445,324
,572,2016/11/29 04:46:50.41,-1991,3689,-16042,-21,66,21,-56,-628,572,342
,573,2016/11/29 04:46:50.42,-1999,3729,-16065,-26,37,-1,-127,-585,458,356
,574,2016/11/29 04:46:50.43,-1944,3644,-16069,-12,64,-26,-31,-568,537,299
,575,2016/11/29 04:46:50.44,-2009,3661,-15985,-22,67,-10,-104,-637,533,370
,576,2016/11/29 04:46:50.45,-2024,3661,-16044,-40,33,2,-84,-545,461,314
,577,2016/11/29 04:46:50.46,-1998,3639,-16008,-41,59,-12,-35,-627,592,331
,578,2016/11/29 04:46:50.47,-1945,3659,-16014,-58,47,-21,-109,-584,475,346
,579,2016/11/29 04:46:50.48,-1960,3618,-16022,-61,55,-27,-19,-569,550,294
,580,2016/11/29 04:46:50.49,-2018,3634,-16007,-75,48,-24,-101,-636,535,368
,581,2016/11/29 04:46:50.50,-2015,3685,-16029,-81,40,-24,-89,-546,457,317
,582,2016/11/29 04:46:50.51,-1901,3692,-16058,-104,73,-32,-51,-628,577,339
,583,2016/11/29 04:46:50.52,-1994,3640,-16044,-106,49,-32,-121,-585,464,353
,584,2016/11/29 04:46:50.53,-1973,3652,-16035,-112,53,-55,-20,-571,551,295
,585,2016/11/29 04:46:50.54,-1929,3647,-16033,-112,77,-51,-87,-638,551,362
,586,2016/11/29 04:46:50.55,-1948,3647,-15984,-94,56,-58,-67,-545,478,306
,587,2016/11/29 04:46:50.56,-1972,3656,-16064,-70,68,-58,-37,-628,591,332
,588,2016/11/29 04:46:50.57,-1986,3668,-16048,-77,50,-70,-118,-585,467,351
,589,2016/11/29 04:46:50.58,-1901,3687,-16074,-67,51,-55,-23,-572,549,297
,590,2016/11/29 04:46:50.59,-1976,3646,-16106,-71,78,-51,-99,-637,538,368
,591,2016/11/29 04:46:50.60,-1952,3534,-16087,-57,46,-56,-80,-546,466,313
,592,2016/11/29 04:46:50.61,-1956,3576,-16046,1,20,-6,-46,-630,584,338
,593,2016/11/29 04:46:50.62,-2017,3619,-15940,6,-21,30,-122,-585,463,353
,594,2016/11/29 04:46:50.63,-1998,3630,-15973,-25,11,45,-23,-571,548,297
,595,2016/11/29 04:46:50.64,-1919,3630,-15988,-45,19,60,-98,-635,537,366
,596,2016/11/29 04:46:50.65,-1963,3611,-16071,-76,23,46,-86,-545,459,315
,597,2016/11/29 04:46:50.66,-1964,3634,-16104,-113,41,37,-54,-628,574,341
,598,2016/11/29 04:46:50.67,-1994,3655,-16111,-159,35,18,-137,-585,448,361
,599,2016/11/29 04:46:50.68,-2036,3670,-16069,-172,80,4,-54,-573,519,313
,600,2016/11/29 04:46:50.69,-2003,3682,-16010,-163,90,4,-130,-639,509,384
,601,2016/11/29 04:46:50.70,-1991,3637,-16145,-136,72,-6,-102,-550,448,326
,602,2016/11/29 04:46:50.71,-1919,3646,-16139,-127,63,11,-55,-631,576,343
,603,2016/11/29 04:46:50.72,-1929,3625,-16098,-91,33,-4,-121,-578,457,349
,604,2016/11/29 04:46:50.73,-1905,3625,-16083,-56,-6,9,-29,-564,535,296
,605,2016/11/29 04:46:50.74,-1970,3631,-16010,-39,8,9,-116,-634,518,375
,606,2016/11/29 04:46:50.75,-2024,3680,-16005,-16,22,22,-96,-546,450,321
,607,2016/11/29 04:46:50.76,-1947,3632,-15920,9,17,20,-63,-632,569,347
,608,2016/11/29 04:46:50.77,-1948,3626,-16004,27,10,43,-140,-588,448,364
,609,2016/11/29 04:46:50.78,-1950,3621,-15982,51,36,56,-42,-571,529,306
,610,2016/11/29 04:46:50.79,-1972,3583,-16063,37,-5,75,-122,-636,514,379
,611,2016/11/29 04:46:50.80,-2055,3589,-16067,17,-18,99,-101,-549,448,325
,612,2016/11/29 04:46:50.81,-1935,3557,-16020,-19,-40,120,-54,-633,579,343
,613,2016/11/29 04:46:50.82,-1939,3586,-16080,-59,-39,129,-121,-585,464,353
,614,2016/11/29 04:46:50.83,-1963,3600,-16089,-102,-37,154,-28,-572,544,300
,615,2016/11/29 04:46:50.84,-2029,3598,-16127,-112,-48,151,-100,-636,536,368
,616,2016/11/29 04:46:50.85,-1945,3623,-16105,-133,-53,145,-70,-547,477,308
,617,2016/11/29 04:46:50.86,-1954,3669,-16023,-145,-36,144,-38,-631,593,334
,618,2016/11/29 04:46:50.87,-2027,3700,-15967,-160,-37,107,-114,-582,468,348
,619,2016/11/29 04:46:50.88,-1954,3697,-16012,-153,-13,92,-27,-569,542,298
,620,2016/11/29 04:46:50.89,-2026,3657,-16066,-107,11,66,-113,-635,522,374
,621,2016/11/29 04:46:50.90,-1997,3657,-16040,-95,22,50,-91,-546,455,318
,622,2016/11/29 04:46:50.91,-2024,3656,-15992,-64,18,15,-50,-632,582,341
,623,2016/11/29 04:46:50.92,-2027,3715,-16000,-54,36,3,-121,-583,462,352
,624,2016/11/29 04:46:50.93,-1948,3709,-15932,-92,71,-22,-30,-571,541,300
,625,2016/11/29 04:46:50.94,-1981,3699,-15925,-58,93,-41,-108,-638,530,373
,626,2016/11/29 04:46:50.95,-1992,3695,-16052,-62,99,-66,-80,-547,467,313
,627,2016/11/29 04:46:50.96,-1969,3628,-16117,-60,106,-63,-49,-628,579,338
,628,2016/11/29 04:46:50.97,-2015,3609,-16136,-52,101,-77,-129,-581,452,355
,629,2016/11/29 04:46:50.98,-1982,3607,-16100,-36,74,-57,-36,-571,535,303
,630,2016/11/29 04:46:50.99,-1976,3624,-16069,-49,58,-52,-117,-636,519,376
,631,2016/11/29 04:46:51.00,-1981,3625,-16029,-47,43,-43,-96,-547,451,321
,632,2016/11/29 04:46:51.01,-1993,3627,-15999,-55,67,-45,-69,-632,563,350
,633,2016/11/29 04:46:51.02,-1935,3618,-15997,-62,68,-50,-136,-582,446,359
,634,2016/11/29 04:46:51.03,-2005,3614,-16045,-76,79,-39,-38,-572,534,305
,635,2016/11/29 04:46:51.04,-1972,3734,-15993,-70,88,-28,-110,-636,526,373
,636,2016/11/29 04:46:51.05,-1935,3643,-16021,-85,81,-42,-74,-546,472,310
,637,2016/11/29 04:46:51.06,-1931,3625,-16004,-94,114,-42,-28,-629,601,328
,638,2016/11/29 04:46:51.07,-1960,3592,-16042,-100,100,-40,-97,-578,481,337
,639,2016/11/29 04:46:51.08,-1912,3661,-16048,-97,87,-38,-6,-564,558,285
,640,2016/11/29 04:46:51.09,-2008,3638,-16065,-103,96,-25,-95,-627,532,361
,641,2016/11/29 04:46:51.10,-1968,3657,-15989,-106,86,-16,-76,-541,465,308
,642,2016/11/29 04:46:51.11,-1952,3653,-16063,-100,74,-23,-34,-628,594,331
,643,2016/11/29 04:46:51.12,-2038,3629,-16107,-99,61,-28,-99,-575,476,337
,644,2016/11/29 04:46:51.13,-2010,3620,-16128,-109,46,-34,-9,-564,555,286
,645,2016/11/29 04:46:51.14,-1968,3683,-16042,-107,42,-42,-100,-627,527,363
,646,2016/11/29 04:46:51.15,-1986,3636,-16055,-117,12,-23,-82,-538,456,310
,647,2016/11/29 04:46:51.16,-1917,3619,-16076,-120,1,-26,-60,-626,566,343
,648,2016/11/29 04:46:51.17,-1905,3691,-16086,-112,21,-12,-132,-577,445,354
,649,2016/11/29 04:46:51.18,-1932,3665,-16015,-93,3,-24,-39,-568,529,303
,650,2016/11/29 04:46:51.19,-1937,3655,-16062,-82,-6,10,-127,-633,506,380
,651,2016/11/29 04:46:51.20,-2039,3646,-16067,-79,-12,36,-100,-544,444,322
,652,2016/11/29 04:46:51.21,-1933,3598,-16019,-70,-15,45,-61,-631,570,346
,653,2016/11/29 04:46:51.22,-2019,3707,-16045,-51,9,54,-121,-582,461,351
,654,2016/11/29 04:46:51.23,-2000,3639,-16014,-26,19,65,-16,-571,555,293
,655,2016/11/29 04:46:51.24,-2092,3643,-16076,-43,23,75,-100,-631,531,365
,656,2016/11/29 04:46:51.25,-1950,3689,-15971,-15,42,74,-83,-540,457,311
,657,2016/11/29 04:46:51.26,-2081,3654,-16040,-2,57,71,-61,-626,565,343
,658,2016/11/29 04:46:51.27,-2051,3635,-16050,15,44,55,-133,-574,441,353
,659,2016/11/29 04:46:51.28,-2006,3707,-16018,7,68,57,-38,-569,531,303
,660,2016/11/29 04:46:51.29,-2021,3667,-16035,8,65,39,-112,-632,520,372
,661,2016/11/29 04:46:51.30,-1982,3641,-16026,11,90,29,-78,-541,463,309
,662,2016/11/29 04:46:51.31,-2021,3686,-16051,4,93,15,-48,-627,579,337
,663,2016/11/29 04:46:51.32,-2072,3615,-16065,-20,101,5,-120,-574,454,347
,664,2016/11/29 04:46:51.33,-2083,3693,-16068,-8,73,-21,-28,-567,539,297
,665,2016/11/29 04:46:51.34,-2059,3633,-16073,-42,91,-15,-105,-631,526,368
,666,2016/11/29 04:46:51.35,-2039,3600,-16030,-34,94,-28,-68,-541,473,304
,667,2016/11/29 04:46:51.36,-2032,3603,-16040,-54,68,-46,-33,-626,593,329
,668,2016/11/29 04:46:51.37,-1952,3612,-16026,-42,67,-58,-103,-576,473,339
,669,2016/11/29 04:46:51.38,-1973,3576,-16070,-63,63,-64,-14,-565,551,289
,670,2016/11/29 04:46:51.39,-1977,3634,-16035,-51,74,-67,-102,-625,523,363
,671,2016/11/29 04:46:51.40,-2028,3639,-16015,-61,45,-81,-80,-540,460,310
,672,2016/11/29 04:46:51.41,-1938,3647,-16054,-50,82,-67,-49,-630,581,339
,673,2016/11/29 04:46:51.42,-1838,3631,-16074,-60,63,-64,-120,-575,455,347
,674,2016/11/29 04:46:51.43,-2015,3639,-16020,-70,82,-82,-31,-569,538,300
,675,2016/11/29 04:46:51.44,-2019,3612,-16089,-76,74,-70,-110,-631,521,370
,676,2016/11/29 04:46:51.45,-1989,3611,-16020,-75,87,-51,-77,-544,467,310
,677,2016/11/29 04:46:51.46,-2058,3730,-16096,-89,75,-67,-54,-631,577,342
,678,2016/11/29 04:46:51.47,-1932,3606,-16073,-100,85,-53,-121,-578,457,349
,679,2016/11/29 04:46:51.48,-1986,3660,-15997,-108,82,-57,-15,-569,554,292
,680,2016/11/29 04:46:51.49,-2017,3640,-16065,-108,77,-60,-100,-630,530,365
,681,2016/11/29 04:46:51.50,-1919,3638,-15998,-80,47,-51,-78,-539,461,308
,682,2016/11/29 04:46:51.51,-1946,3623,-15983,-52,62,-35,-58,-628,570,343
,683,2016/11/29 04:46:51.52,-1978,3659,-16042,-51,49,-51,-132,-580,448,356
,684,2016/11/29 04:46:51.53,-1965,3607,-16079,-55,95,-42,-43,-574,531,308
,685,2016/11/29 04:46:51.54,-2016,3546,-16085,-24,68,-35,-129,-634,505,381
,686,2016/11/29 04:46:51.55,-1976,3517,-16039,25,38,-5,-100,-551,451,325
,687,2016/11/29 04:46:51.56,-1985,3597,-15944,25,29,12,-71,-636,565,353
,688,2016/11/29 04:46:51.57,-1953,3573,-16012,19,48,33,-138,-582,444,360
,689,2016/11/29 04:46:51.58,-1959,3596,-16064,3,38,31,-52,-576,524,314
,690,2016/11/29 04:46:51.59,-1968,3592,-16065,-28,22,48,-134,-631,497,382
,691,2016/11/29 04:46:51.60,-1948,3695,-16081,-102,41,19,-94,-543,449,318
,692,2016/11/29 04:46:51.61,-1931,3651,-16120,-165,58,-5,-71,-633,562,352
,693,2016/11/29 04:46:51.62,-1922,3664,-16067,-198,100,-13,-132,-577,445,354
,694,2016/11/29 04:46:51.63,-1870,3632,-16053,-207,96,-30,-31,-573,542,302
,695,2016/11/29 04:46:51.64,-1918,3619,-16165,-180,83,-44,-112,-635,523,373
,696,2016/11/29 04:46:51.65,-1941,3624,-16138,-137,69,-48,-76,-545,469,310
,697,2016/11/29 04:46:51.66,-1905,3631,-16110,-107,31,-29,-47,-632,585,339
,698,2016/11/29 04:46:51.67,-1879,3658,-16043,-41,7,-38,-119,-581,462,350
,699,2016/11/29 04:46:51.68,-1886,3688,-15994,-9,20,-44,-26,-574,548,300
,700,2016/11/29 04:46:51.69,-1889,3636,-15975,25,28,-43,-112,-632,520,372
,701,2016/11/29 04:46:51.70,-1952,3637,-15989,34,33,-36,-85,-550,465,317
,702,2016/11/29 04:46:51.71,-1905,3566,-15987,47,41,-13,-46,-637,591,341
,703,2016/11/29 04:46:51.72,-2040,3566,-16014,49,48,20,-101,-576,475,338
,704,2016/11/29 04:46:51.73,-1998,3561,-16060,44,15,52,-7,-572,565,289
,705,2016/11/29 04:46:51.74,-1963,3537,-16046,-9,31,86,-98,-626,528,362
,706,2016/11/29 04:46:51.75,-1933,3536,-16104,-39,28,120,-76,-540,464,308
,707,2016/11/29 04:46:51.76,-1938,3583,-16087,-99,12,135,-69,-631,562,350
,708,2016/11/29 04:46:51.77,-1944,3581,-16090,-105,7,141,-141,-574,433,357
,709,2016/11/29 04:46:51.78,-1909,3603,-16071,-136,-8,149,-50,-568,518,309
,710,2016/11/29 04:46:51.79,-2023,3622,-16074,-142,-10,133,-142,-628,486,385
,711,2016/11/29 04:46:51.80,-1964,3720,-16104,-188,5,117,-107,-545,438,326
,712,2016/11/29 04:46:51.81,-1948,3749,-15991,-190,-3,85,-81,-635,554,358
,713,2016/11/29 04:46:51.82,-2014,3697,-16009,-173,16,39,-149,-581,432,365
,714,2016/11/29 04:46:51.83,-1946,3685,-16016,-122,45,4,-55,-576,521,315
,715,2016/11/29 04:46:51.84,-1998,3669,-16002,-101,59,-19,-131,-632,501,381
,716,2016/11/29 04:46:51.85,-2008,3642,-15986,-69,28,-51,-90,-546,456,318
,717,2016/11/29 04:46:51.86,-2007,3736,-16017,-42,32,-54,-51,-633,582,342
,718,2016/11/29 04:46:51.87,-1953,3664,-16000,-40,72,-63,-106,-574,468,340
,719,2016/11/29 04:46:51.88,-1977,3667,-16006,-62,101,-68,-13,-569,556,291
,720,2016/11/29 04:46:51.89,-1927,3611,-16032,-49,112,-64,-105,-621,516,363
,721,2016/11/29 04:46:51.90,-2039,3607,-16150,-49,98,-59,-83,-534,451,308
,722,2016/11/29 04:46:51.91,-1869,3551,-16062,-38,94,-30,-69,-629,560,349
,723,2016/11/29 04:46:51.92,-2009,3558,-16115,-46,98,-11,-129,-574,445,351
,724,2016/11/29 04:46:51.93,-2004,3543,-16124,-27,76,-7,-27,-571,544,299
,725,2016/11/29 04:46:51.94,-1977,3667,-16034,-26,81,-19,-110,-626,516,368
,726,2016/11/29 04:46:51.95,-2010,3629,-16080,-57,82,-15,-77,-537,460,307
,727,2016/11/29 04:46:51.96,-1880,3611,-16022,-39,88,-40,-62,-626,564,344
,728,2016/11/29 04:46:51.97,-1941,3614,-16047,-43,104,-48,-129,-573,444,351
,729,2016/11/29 04:46:51.98,-1916,3652,-16055,-49,114,-66,-30,-571,541,300
,730,2016/11/29 04:46:51.99,-1928,3621,-16028,-67,112,-65,-114,-628,514,371
,731,2016/11/29 04:46:52.00,-1963,3598,-16015,-54,117,-77,-82,-545,463,313
,732,2016/11/29 04:46:52.01,-1974,3591,-16052,-74,122,-81,-51,-634,583,342
,733,2016/11/29 04:46:52.02,-1893,3581,-16048,-104,123,-82,-106,-575,469,340
,734,2016/11/29 04:46:52.03,-1881,3592,-16015,-104,102,-45,-9,-572,563,290
,735,2016/11/29 04:46:52.04,-1950,3571,-16038,-132,98,-52,-99,-624,525,361
,736,2016/11/29 04:46:52.05,-1880,3627,-16061,-134,87,-42,-72,-539,467,305
,737,2016/11/29 04:46:52.06,-1767,3630,-16060,-144,95,-40,-57,-632,575,344
,738,2016/11/29 04:46:52.07,-1890,3655,-16074,-133,66,-42,-115,-575,460,345
,739,2016/11/29 04:46:52.08,-1909,3667,-16055,-152,53,-49,-13,-575,562,294
,740,2016/11/29 04:46:52.09,-1933,3626,-16064,-143,39,-45,-92,-630,538,361
,741,2016/11/29 04:46:52.10,-1928,3677,-16119,-132,16,-41,-53,-539,486,296
,742,2016/11/29 04:46:52.11,-1911,3674,-16085,-133,-10,-35,-35,-626,591,330
,743,2016/11/29 04:46:52.12,-1855,3678,-16054,-125,-1,-22,-104,-566,462,335
,744,2016/11/29 04:46:52.13,-1902,3656,-16038,-122,-20,-8,-9,-567,558,288
,745,2016/11/29 04:46:52.14,-1931,3611,-16058,-106,-33,0,-96,-624,528,360
,746,2016/11/29 04:46:52.15,-1849,3652,-16049,-109,-22,33,-66,-544,478,305
,747,2016/11/29 04:46:52.16,-1934,3650,-15993,-86,-24,50,-50,-633,583,341
,748,2016/11/29 04:46:52.17,-1961,3645,-16062,-73,-3,76,-117,-575,458,346
,749,2016/11/29 04:46:52.18,-1932,3637,-16045,-64,-7,68,-26,-576,550,301
,750,2016/11/29 04:46:52.19,-2005,3669,-16031,-71,2,90,-114,-625,511,369
,751,2016/11/29 04:46:52.20,-1938,3666,-16047,-60,9,77,-82,-537,455,309
,752,2016/11/29 04:46:52.21,-1871,3616,-16033,-49,13,67,-74,-634,560,354
,753,2016/11/29 04:46:52.22,-1934,3696,-16056,-71,15,71,-134,-576,442,355
,754,2016/11/29 04:46:52.23,-2014,3659,-16052,-52,42,44,-42,-577,535,309
,755,2016/11/29 04:46:52.24,-1953,3628,-16096,-45,34,36,-139,-634,495,386
,756,2016/11/29 04:46:52.25,-1986,3660,-16088,-25,35,13,-99,-545,446,322
,757,2016/11/29 04:46:52.26,-1945,3641,-16058,-18,29,-2,-83,-636,553,359
,758,2016/11/29 04:46:52.27,-1873,3651,-16031,-63,35,-12,-143,-579,436,361
,759,2016/11/29 04:46:52.28,-1968,3648,-16083,-54,33,-4,-50,-576,526,313
,760,2016/11/29 04:46:52.29,-1968,3649,-16019,-62,31,-13,-145,-629,484,387
,761,2016/11/29 04:46:52.30,-1982,3642,-16080,-67,23,-11,-111,-548,437,329
,762,2016/11/29 04:46:52.31,-1912,3598,-16035,-71,12,-20,-96,-637,541,366
,763,2016/11/29 04:46:52.32,-1868,3629,-16022,-94,-3,-14,-153,-580,427,366
,764,2016/11/29 04:46:52.33,-2022,3637,-16053,-103,-5,-10,-66,-586,520,326
,765,2016/11/29 04:46:52.34,-1891,3653,-16042,-111,-3,-16,-149,-635,486,392
,766,2016/11/29 04:46:52.35,-1900,3627,-16039,-114,-7,2,-102,-550,448,326
,767,2016/11/29 04:46:52.36,-1965,3628,-16074,-125,-3,3,-78,-642,564,360
,768,2016/11/29 04:46:52.37,-1958,3618,-16056,-127,-5,10,-123,-576,453,349
,769,2016/11/29 04:46:52.38,-1907,3624,-16085,-140,-5,6,-26,-575,549,300
,770,2016/11/29 04:46:52.39,-1921,3633,-16120,-161,-22,2,-126,-629,503,377
,771,2016/11/29 04:46:52.40,-1889,3588,-16097,-173,-39,23,-88,-542,454,315
,772,2016/11/29 04:46:52.41,-1924,3674,-16075,-194,-73,17,-83,-635,552,359
,773,2016/11/29 04:46:52.42,-1837,3672,-16038,-205,-86,23,-148,-581,433,364
,774,2016/11/29 04:46:52.43,-1899,3659,-16031,-203,-112,35,-57,-582,525,319
,775,2016/11/29 04:46:52.44,-1989,3611,-16053,-211,-107,41,-151,-633,482,392
,776,2016/11/29 04:46:52.45,-1984,3702,-16067,-209,-133,75,-110,-554,444,332
,777,2016/11/29 04:46:52.46,-2050,3640,-16080,-228,-124,99,-99,-645,546,372
,778,2016/11/29 04:46:52.47,-2013,3685,-16123,-229,-148,131,-154,-580,426,367
,779,2016/11/29 04:46:52.48,-1903,3582,-16153,-227,-167,126,-72,-587,515,329
,780,2016/11/29 04:46:52.49,-1975,3540,-16065,-216,-228,189,-171,-637,466,404
,781,2016/11/29 04:46:52.50,-1953,3641,-16020,-243,-257,231,-126,-553,427,339
,782,2016/11/29 04:46:52.51,-1943,3659,-16021,-271,-282,281,-139,-648,509,393
,783,2016/11/29 04:46:52.52,-1998,3606,-16072,-287,-317,311,-195,-581,386,388
,784,2016/11/29 04:46:52.53,-1872,3623,-16112,-360,-367,362,-114,-587,473,350
,785,2016/11/29 04:46:52.54,-1949,3589,-16205,-434,-428,427,-220,-643,423,431
,786,2016/11/29 04:46:52.55,-1996,3641,-16172,-530,-478,476,-167,-558,391,362
,787,2016/11/29 04:46:52.56,-2041,3607,-16191,-625,-551,560,-186,-651,465,418
,788,2016/11/29 04:46:52.57,-1978,3599,-16238,-720,-616,661,-242,-592,350,417
,789,2016/11/29 04:46:52.58,-1890,3568,-16300,-774,-720,778,-166,-595,429,380
,790,2016/11/29 04:46:52.59,-1843,3515,-16314,-840,-811,957,-270,-642,372,456
,791,2016/11/29 04:46:52.60,-1973,3495,-16277,-907,-947,1133,-218,-561,343,389
,792,2016/11/29 04:46:52.61,-1899,3404,-16264,-1018,-1068,1383,-244,-652,408,448
,793,2016/11/29 04:46:52.62,-1985,3293,-16270,-1162,-1205,1650,-281,-588,307,434
,794,2016/11/29 04:46:52.63,-1895,3321,-16170,-1310,-1352,1970,-209,-599,390,404
,795,2016/11/29 04:46:52.64,-1856,3268,-16062,-1473,-1506,2297,-307,-649,342,478
,796,2016/11/29 04:46:52.65,-1910,3276,-16109,-1634,-1637,2638,-245,-567,322,406
,797,2016/11/29 04:46:52.66,-2021,3259,-16245,-1813,-1768,2964,-276,-660,384,468
,798,2016/11/29 04:46:52.67,-2006,3368,-16189,-1979,-1922,3302,-298,-596,298,447
,799,2016/11/29 04:46:52.68,-1968,3507,-16133,-2152,-2084,3610,-214,-602,388,408
,800,2016/11/29 04:46:52.69,-2086,3588,-16046,-2332,-2312,3892,-303,-652,349,477
,801,2016/11/29 04:46:52.70,-2021,3735,-16043,-2613,-2425,4141,-231,-565,334,398
,802,2016/11/29 04:46:52.71,-2025,3749,-15954,-2850,-2584,4361,-267,-657,390,462
,803,2016/11/29 04:46:52.72,-2078,3853,-15999,-3114,-2735,4546,-295,-596,301,445
,804,2016/11/29 04:46:52.73,-2038,3958,-16027,-3280,-2867,4726,-221,-603,382,412
,805,2016/11/29 04:46:52.74,-2075,4023,-15901,-3415,-2963,4876,-322,-654,332,488
,806,2016/11/29 04:46:52.75,-1983,4233,-15889,-3485,-3050,5013,-253,-569,316,411
,807,2016/11/29 04:46:52.76,-2162,4366,-15795,-3494,-3152,5104,-302,-660,358,481
,808,2016/11/29 04:46:52.77,-2191,4518,-15746,-3446,-3247,5177,-320,-598,278,459
,809,2016/11/29 04:46:52.78,-2295,4656,-15782,-3397,-3364,5273,-258,-604,346,431
,810,2016/11/29 04:46:52.79,-2387,4697,-15545,-3372,-3431,5343,-349,-651,302,500
,811,2016/11/29 04:46:52.80,-2362,4873,-15587,-3361,-3465,5432,-271,-566,295,418
,812,2016/11/29 04:46:52.81,-2343,4995,-15414,-3438,-3441,5491,-322,-660,338,491
,813,2016/11/29 04:46:52.82,-2337,4937,-15420,-3509,-3474,5606,-328,-597,269,462
,814,2016/11/29 04:46:52.83,-2507,5049,-15452,-3589,-3378,5710,-267,-600,333,433
,815,2016/11/29 04:46:52.84,-2491,5076,-15317,-3575,-3447,5822,-357,-649,292,503
,816,2016/11/29 04:46:52.85,-2678,5196,-15349,-3703,-3351,5951,-274,-565,291,419
,817,2016/11/29 04:46:52.86,-2521,5271,-15458,-3773,-3384,6047,-328,-656,328,492
,818,2016/11/29 04:46:52.87,-2640,5404,-15422,-3797,-3387,6144,-333,-591,258,462
,819,2016/11/29 04:46:52.88,-2678,5487,-15267,-3856,-3502,6231,-274,-589,315,431
,820,2016/11/29 04:46:52.89,-2554,5612,-15158,-3943,-3511,6309,-362,-637,275,499
,821,2016/11/29 04:46:52.90,-2733,5753,-15150,-4028,-3417,6305,-285,-558,273,421
,822,2016/11/29 04:46:52.91,-2648,5941,-14898,-3989,-3460,6290,-331,-645,314,488
,823,2016/11/29 04:46:52.92,-2705,6033,-14921,-3908,-3404,6247,-329,-578,249,453
,824,2016/11/29 04:46:52.93,-2780,6379,-14998,-3843,-3392,6126,-268,-580,312,424
,825,2016/11/29 04:46:52.94,-2785,6597,-14867,-3773,-3376,5978,-343,-623,280,483
,826,2016/11/29 04:46:52.95,-2762,6822,-14844,-3721,-3407,5819,-260,-538,278,399
,827,2016/11/29 04:46:52.96,-2837,6922,-14917,-3711,-3346,5643,-320,-631,311,475
,828,2016/11/29 04:46:52.97,-2971,7047,-14927,-3765,-3311,5445,-310,-564,254,437
,829,2016/11/29 04:46:52.98,-2827,6990,-14871,-3814,-3458,5281,-243,-564,321,403
,830,2016/11/29 04:46:52.99,-2961,7003,-14685,-3852,-3464,5122,-331,-614,283,472
,831,2016/11/29 04:46:53.00,-2923,7035,-14631,-3758,-3442,4971,-240,-525,285,382
,832,2016/11/29 04:46:53.01,-3022,7074,-14651,-3602,-3405,4847,-297,-620,323,458
,833,2016/11/29 04:46:53.02,-2938,7209,-14630,-3395,-3397,4712,-301,-562,261,431
,834,2016/11/29 04:46:53.03,-3067,7455,-14673,-3231,-3401,4601,-232,-562,330,397
,835,2016/11/29 04:46:53.04,-3032,7470,-14594,-3145,-3381,4484,-315,-610,295,462
,836,2016/11/29 04:46:53.05,-3180,7574,-14612,-3110,-3384,4385,-234,-523,289,378
,837,2016/11/29 04:46:53.06,-3101,7729,-14624,-3185,-3397,4288,-281,-608,327,444
,838,2016/11/29 04:46:53.07,-3206,7750,-14442,-3284,-3467,4214,-277,-544,267,410
,839,2016/11/29 04:46:53.08,-3230,7619,-14345,-3349,-3452,4167,-219,-547,328,383
,840,2016/11/29 04:46:53.09,-3303,7741,-14302,-3304,-3429,4132,-293,-591,298,442
,841,2016/11/29 04:46:53.10,-3232,7751,-14173,-3231,-3449,4118,-203,-504,301,353
,842,2016/11/29 04:46:53.11,-3339,7757,-14138,-3127,-3388,4125,-265,-597,332,431
,843,2016/11/29 04:46:53.12,-3214,7801,-14157,-2947,-3295,4128,-259,-530,271,394
,844,2016/11/29 04:46:53.13,-3315,8017,-14064,-2723,-3279,4100,-205,-533,328,369
,845,2016/11/29 04:46:53.14,-3354,8100,-14005,-2557,-3207,4091,-298,-586,288,442
,846,2016/11/29 04:46:53.15,-3325,8294,-14013,-2436,-3076,4061,-207,-500,293,353
,847,2016/11/29 04:46:53.16,-3328,8406,-14015,-2323,-3047,4026,-261,-594,333,427
,848,2016/11/29 04:46:53.17,-3495,8525,-13999,-2276,-2999,3978,-260,-532,272,396
,849,2016/11/29 04:46:53.18,-3418,8550,-13971,-2234,-2958,3899,-197,-533,336,365
,850,2016/11/29 04:46:53.19,-3487,8507,-13855,-2138,-2919,3857,-287,-581,294,434
,851,2016/11/29 04:46:53.20,-3492,8535,-13797,-2027,-2844,3785,-210,-500,290,355
,852,2016/11/29 04:46:53.21,-3528,8526,-13773,-1872,-2783,3744,-263,-595,332,429
,853,2016/11/29 04:46:53.22,-3613,8558,-13762,-1727,-2678,3698,-258,-534,276,396
,854,2016/11/29 04:46:53.23,-3622,8719,-13751,-1602,-2567,3640,-211,-546,335,378
,855,2016/11/29 04:46:53.24,-3600,8757,-13746,-1467,-2528,3569,-292,-592,300,442
,856,2016/11/29 04:46:53.25,-3602,8821,-13716,-1380,-2435,3510,-208,-507,299,357
,857,2016/11/29 04:46:53.26,-3618,8887,-13626,-1305,-2349,3430,-280,-603,323,441
,858,2016/11/29 04:46:53.27,-3605,8937,-13581,-1282,-2296,3338,-269,-534,265,401
,859,2016/11/29 04:46:53.28,-3522,8883,-13554,-1217,-2169,3254,-214,-543,329,378
,860,2016/11/29 04:46:53.29,-3603,8897,-13519,-1121,-2086,3172,-309,-594,285,451
,861,2016/11/29 04:46:53.30,-3690,8943,-13533,-1016,-1969,3093,-224,-508,284,366
,862,2016/11/29 04:46:53.31,-3691,9091,-13567,-884,-1853,2997,-285,-606,321,445
,863,2016/11/29 04:46:53.32,-3685,9137,-13553,-750,-1753,2883,-279,-542,263,410
,864,2016/11/29 04:46:53.33,-3678,9200,-13504,-620,-1661,2737,-215,-546,331,380
,865,2016/11/29 04:46:53.34,-3746,9321,-13545,-501,-1611,2598,-303,-591,288,447
,866,2016/11/29 04:46:53.35,-3767,9314,-13496,-435,-1518,2439,-226,-512,286,369
,867,2016/11/29 04:46:53.36,-3704,9383,-13458,-400,-1461,2242,-277,-606,329,441
,868,2016/11/29 04:46:53.37,-3680,9406,-13464,-372,-1342,2033,-257,-535,278,396
,869,2016/11/29 04:46:53.38,-3737,9421,-13421,-399,-1217,1820,-206,-547,341,376
,870,2016/11/29 04:46:53.39,-3607,9411,-13388,-388,-1119,1600,-292,-589,297,440
,871,2016/11/29 04:46:53.40,-3708,9390,-13404,-424,-1009,1369,-215,-509,294,362
,872,2016/11/29 04:46:53.41,-3769,9326,-13396,-443,-925,1178,-298,-613,315,455
,873,2016/11/29 04:46:53.42,-3755,9331,-13427,-444,-827,975,-290,-547,257,418
,874,2016/11/29 04:46:53.43,-3857,9307,-13440,-475,-737,808,-246,-560,314,403
,875,2016/11/29 04:46:53.44,-3850,9228,-13499,-508,-636,658,-343,-610,267,476
,876,2016/11/29 04:46:53.45,-3818,9195,-13409,-510,-569,544,-251,-528,277,389
,877,2016/11/29 04:46:53.46,-3934,9211,-13412,-534,-487,437,-324,-628,304,476
,878,2016/11/29 04:46:53.47,-3776,9153,-13372,-553,-415,359,-319,-563,244,441
,879,2016/11/29 04:46:53.48,-3824,9110,-13409,-535,-297,293,-263,-573,310,418
,880,2016/11/29 04:46:53.49,-3823,9105,-13434,-494,-257,235,-346,-615,269,480
,881,2016/11/29 04:46:53.50,-3890,9141,-13417,-460,-181,193,-262,-533,271,397
,882,2016/11/29 04:46:53.51,-3891,9109,-13459,-398,-120,138,-328,-625,297,476
,883,2016/11/29 04:46:53.52,-3789,9140,-13482,-355,-62,82,-317,-555,238,436
,884,2016/11/29 04:46:53.53,-3853,9134,-13435,-295,-17,39,-278,-578,300,428
,885,2016/11/29 04:46:53.54,-3835,9171,-13459,-261,-11,-16,-358,-620,262,489
,886,2016/11/29 04:46:53.55,-3818,9075,-13417,-240,38,-59,-272,-538,266,405
,887,2016/11/29 04:46:53.56,-3780,9089,-13445,-240,34,-148,-352,-637,285,494
,888,2016/11/29 04:46:53.57,-3823,9121,-13455,-236,38,-190,-332,-561,229,446
,889,2016/11/29 04:46:53.58,-3847,9099,-13479,-283,44,-225,-288,-579,291,433
,890,2016/11/29 04:46:53.59,-3790,9075,-13448,-303,50,-237,-378,-626,248,502
,891,2016/11/29 04:46:53.60,-3823,9049,-13517,-321,82,-254,-283,-545,262,414
,892,2016/11/29 04:46:53.61,-3841,9051,-13501,-324,91,-256,-354,-643,289,498
,893,2016/11/29 04:46:53.62,-3844,9053,-13514,-316,96,-236,-342,-573,231,457
,894,2016/11/29 04:46:53.63,-3785,9022,-13518,-308,115,-212,-294,-586,292,440
,895,2016/11/29 04:46:53.64,-3840,9065,-13458,-290,145,-200,-377,-625,248,501
,896,2016/11/29 04:46:53.65,-3846,9064,-13469,-279,161,-167,-296,-552,256,424
,897,2016/11/29 04:46:53.66,-3893,9100,-13530,-241,172,-146,-361,-642,281,501
,898,2016/11/29 04:46:53.67,-3794,9065,-13454,-192,183,-142,-345,-569,224,457
,899,2016/11/29 04:46:53.68,-3837,9069,-13461,-160,216,-102,-307,-591,284,449
,900,2016/11/29 04:46:53.69,-3768,9122,-13480,-166,219,-119,-380,-625,245,502
,901,2016/11/29 04:46:53.70,-3817,9125,-13396,-155,238,-119,-289,-544,255,416
,902,2016/11/29 04:46:53.71,-3771,9100,-13403,-142,292,-137,-372,-651,279,511
,903,2016/11/29 04:46:53.72,-3831,9127,-13535,-96,319,-130,-346,-567,221,456
,904,2016/11/29 04:46:53.73,-3721,9089,-13499,-107,359,-173,-298,-592,294,445
,905,2016/11/29 04:46:53.74,-3771,9057,-13499,-80,380,-161,-388,-637,249,512
,906,2016/11/29 04:46:53.75,-3699,9104,-13506,-75,379,-179,-287,-548,261,417
,907,2016/11/29 04:46:53.76,-3742,9031,-13457,-36,395,-166,-360,-649,289,504
,908,2016/11/29 04:46:53.77,-3790,9000,-13523,-29,405,-170,-352,-579,227,465
,909,2016/11/29 04:46:53.78,-3679,9031,-13476,-46,403,-164,-298,-591,293,444
,910,2016/11/29 04:46:53.79,-3690,9022,-13488,-39,429,-146,-378,-629,251,503
,911,2016/11/29 04:46:53.80,-3616,9075,-13435,-13,460,-135,-297,-557,260,427
,912,2016/11/29 04:46:53.81,-3622,9040,-13473,-5,498,-127,-363,-645,282,504
,913,2016/11/29 04:46:53.82,-3628,9070,-13513,1,528,-143,-344,-572,228,458
,914,2016/11/29 04:46:53.83,-3640,9027,-13511,51,550,-128,-317,-602,285,459
,915,2016/11/29 04:46:53.84,-3545,9079,-13568,71,556,-152,-387,-630,243,508
,916,2016/11/29 04:46:53.85,-3650,9061,-13516,97,565,-151,-294,-553,259,423
,917,2016/11/29 04:46:53.86,-3541,9082,-13479,114,562,-169,-379,-661,282,520
,918,2016/11/29 04:46:53.87,-3518,9065,-13566,111,563,-205,-352,-573,221,462
,919,2016/11/29 04:46:53.88,-3464,9054,-13535,83,559,-223,-313,-595,282,454
,920,2016/11/29 04:46:53.89,-3563,9047,-13547,64,590,-228,-398,-634,236,516
,921,2016/11/29 04:46:53.90,-3557,8992,-13566,59,596,-247,-271,-566,295,418
,922,2016/11/29 04:46:53.91,-3495,8993,-13560,50,556,-254,344,7,337,-175
,923,2016/11/29 04:46:53.92,-3499,8994,-13509,39,587,-253,1522,1206,316,-1364
,924,2016/11/29 04:46:53.93,-3458,8983,-13543,16,582,-263,1873,2047,-174,-1960
,925,2016/11/29 04:46:53.94,-3394,9031,-13575,-8,570,-270,1869,2047,-178,-1958
,926,2016/11/29 04:46:53.95,-3432,9019,-13611,-18,546,-270,1854,2047,-193,-1950
,927,2016/11/29 04:46:53.96,-3421,8973,-13580,-26,530,-250,1874,2047,-173,-1960
,928,2016/11/29 04:46:53.97,-3430,9002,-13573,-55,516,-230,1896,512,1384,-1204
,929,2016/11/29 04:46:53.98,-3360,9005,-13617,-51,526,-235,1788,-796,2584,-496
,930,2016/11/29 04:46:53.99,-3436,9000,-13626,-46,500,-228,1653,-475,2128,-589
,931,2016/11/29 04:46:54.00,-3391,8922,-13594,-22,474,-185,955,7,948,-481
,932,2016/11/29 04:46:54.01,-3402,8958,-13602,-28,478,-184,650,482,168,-566
,933,2016/11/29 04:46:54.02,-3362,9024,-13626,-24,450,-181,506,431,75,-468
,934,2016/11/29 04:46:54.03,-3402,9006,-13625,-18,419,-170,353,221,132,-287
,935,2016/11/29 04:46:54.04,-3330,8969,-13613,-25,398,-136,455,169,286,-312
,936,2016/11/29 04:46:54.05,-3421,8947,-13608,-22,365,-98,261,-34,295,-113
,937,2016/11/29 04:46:54.06,-3361,8931,-13705,4,320,-78,306,80,226,-193
,938,2016/11/29 04:46:54.07,-3371,8946,-13637,15,318,-54,247,5,242,-126
,939,2016/11/29 04:46:54.08,-3312,8946,-13675,41,266,-42,133,-13,146,-60
,940,2016/11/29 04:46:54.09,-3316,8926,-13613,69,260,-8,242,88,154,-165
,941,2016/11/29 04:46:54.10,-3312,8879,-13669,77,252,-10,54,-58,112,2
,942,2016/11/29 04:46:54.11,-3352,8920,-13628,80,227,-20,137,106,31,-121
,943,2016/11/29 04:46:54.12,-3291,8894,-13650,92,204,-34,103,86,17,-94
,944,2016/11/29 04:46:54.13,-3280,8868,-13617,58,196,-19,-32,69,-101,-18
,945,2016/11/29 04:46:54.14,-3375,8907,-13635,3,210,-50,77,214,-137,-145
,946,2016/11/29 04:46:54.15,-3364,8924,-13603,-71,200,-57,-86,151,-237,-32
,947,2016/11/29 04:46:54.16,-3336,8893,-13620,-111,185,-75,-18,382,-400,-182
,948,2016/11/29 04:46:54.17,-3409,8954,-13657,-167,175,-81,-55,619,-674,-282
,949,2016/11/29 04:46:54.18,-3288,8949,-13589,-210,161,-97,-280,528,-808,-124
,950,2016/11/29 04:46:54.19,-3316,8907,-13614,-228,149,-103,-508,389,-897,59
,951,2016/11/29 04:46:54.20,-3418,9019,-13579,-237,100,-97,-750,-91,-659,420
,952,2016/11/29 04:46:54.21,-3392,9033,-13583,-251,97,-115,-669,-285,-384,477
,953,2016/11/29 04:46:54.22,-3364,9047,-13635,-276,88,-114,-527,-594,67,560
,954,2016/11/29 04:46:54.23,-3306,9023,-13707,-282,56,-117,-350,-736,386,543
,955,2016/11/29 04:46:54.24,-3351,8961,-13659,-297,3,-111,70,-622,692,276
,956,2016/11/29 04:46:54.25,-3449,9019,-13551,-267,-31,-122,93,-654,747,280
,957,2016/11/29 04:46:54.26,-3390,9041,-13558,-237,-29,-100,210,-464,674,127
,958,2016/11/29 04:46:54.27,-3386,9040,-13651,-221,-28,-69,95,-489,584,197
,959,2016/11/29 04:46:54.28,-3382,9043,-13574,-223,-48,-69,-30,-454,424,242
,960,2016/11/29 04:46:54.29,-3355,9070,-13546,-240,-28,-66,202,-157,359,-22
,961,2016/11/29 04:46:54.30,-3446,9101,-13576,-217,-17,-71,24,-133,157,54
,962,2016/11/29 04:46:54.31,-3427,9191,-13558,-227,30,-83,8,16,-8,-12
,963,2016/11/29 04:46:54.32,-3398,9110,-13613,-208,99,-99,-76,-65,-11,70
,964,2016/11/29 04:46:54.33,-3402,9073,-13610,-147,156,-134,-197,-129,-68,163
,965,2016/11/29 04:46:54.34,-3470,9118,-13631,-76,173,-153,-110,-113,3,111
,966,2016/11/29 04:46:54.35,-3410,9137,-13614,-9,187,-186,-253,-300,47,276
,967,2016/11/29 04:46:54.36,-3361,9155,-13611,55,205,-225,-142,-229,87,185
,968,2016/11/29 04:46:54.37,-3406,9131,-13539,101,231,-264,-137,-328,191,232
,969,2016/11/29 04:46:54.38,-3363,9161,-13503,84,288,-317,-160,-317,157,238
,970,2016/11/29 04:46:54.39,-3405,9103,-13489,104,310,-375,-4,-203,199,103
,971,2016/11/29 04:46:54.40,-3309,8977,-13539,86,333,-427,-153,-319,166,236
,972,2016/11/29 04:46:54.41,-3391,9033,-13513,94,347,-461,-45,-169,124,107
,973,2016/11/29 04:46:54.42,-3379,9002,-13563,61,354,-485,-70,-237,167,153
,974,2016/11/29 04:46:54.43,-3405,9009,-13604,48,331,-509,-155,-258,103,206
,975,2016/11/29 04:46:54.44,-3418,8992,-13639,13,293,-529,-21,-166,145,93
,976,2016/11/29 04:46:54.45,-3380,9068,-13586,-21,266,-564,-169,-296,127,232
,977,2016/11/29 04:46:54.46,-3376,9011,-13658,-51,250,-563,-74,-177,103,125
,978,2016/11/29 04:46:54.47,-3385,8944,-13610,-78,228,-579,-84,-235,151,159
,979,2016/11/29 04:46:54.48,-3357,9048,-13624,-98,209,-593,-154,-241,87,197
,980,2016/11/29 04:46:54.49,-3543,9044,-13689,-110,192,-579,-32,-155,123,93
,981,2016/11/29 04:46:54.50,-3415,9014,-13578,-111,202,-581,-173,-275,102,224
,982,2016/11/29 04:46:54.51,-3507,8966,-13626,-123,207,-589,-76,-144,68,110
,983,2016/11/29 04:46:54.52,-3503,8991,-13663,-121,194,-570,-112,-226,114,169
,984,2016/11/29 04:46:54.53,-3536,8979,-13610,-99,172,-547,-174,-226,52,200
,985,2016/11/29 04:46:54.54,-3500,8949,-13583,-115,184,-534,-48,-139,91,93
,986,2016/11/29 04:46:54.55,-3556,8983,-13564,-115,177,-514,-203,-279,76,241
,987,2016/11/29 04:46:54.56,-3541,8957,-13557,-101,213,-500,-85,-139,54,112
,988,2016/11/29 04:46:54.57,-3483,8911,-13559,-105,254,-460,-110,-212,102,161
,989,2016/11/29 04:46:54.58,-3589,8974,-13583,-83,287,-441,-184,-229,45,206
,990,2016/11/29 04:46:54.59,-3604,8929,-13519,-93,335,-413,-48,-126,78,87
,991,2016/11/29 04:46:54.60,-3538,8946,-13573,-93,340,-403,-195,-256,61,225
,992,2016/11/29 04:46:54.61,-3575,8898,-13603,-67,347,-377,-97,-132,35,114
,993,2016/11/29 04:46:54.62,-3474,8919,-13584,-49,351,-363,-114,-192,78,153
,994,2016/11/29 04:46:54.63,-3565,8939,-13604,-45,333,-333,-180,-204,24,192
,995,2016/11/29 04:46:54.64,-3580,8926,-13630,-27,361,-319,-60,-128,68,94
,996,2016/11/29 04:46:54.65,-3525,8855,-13597,-4,349,-270,-195,-254,59,224
,997,2016/11/29 04:46:54.66,-3511,8919,-13625,31,352,-260,-92,-123,31,107
,998,2016/11/29 04:46:54.67,-3603,8902,-13603,61,348,-203,-124,-205,81,164
,999,2016/11/29 04:46:54.68,-3493,8908,-13590,87,349,-175,-178,-204,26,191
,1000,2016/11/29 04:46:54.69,-3590,8899,-13682,89,368,-126,-48,-111,63,79
,1001,2016/11/29 04:46:54.70,-3484,8880,-13591,127,369,-102,-205,-254,49,229
,1002,2016/11/29 04:46:54.71,-3476,8766,-13665,125,378,-61,-89,-113,24,101
,1003,2016/11/29 04:46:54.72,-3515,8855,-13693,151,348,-23,-119,-192,73,155
,1004,2016/11/29 04:46:54.73,-3453,8761,-13733,144,371,-8,-190,-210,20,200
,1005,2016/11/29 04:46:54.74,-3464,8822,-13649,130,372,33,-56,-112,56,84
,1006,2016/11/29 04:46:54.75,-3406,8739,-13676,134,388,52,-204,-244,40,224
,1007,2016/11/29 04:46:54.76,-3388,8700,-13685,132,379,82,-101,-118,17,109
,1008,2016/11/29 04:46:54.77,-3302,8734,-13683,123,362,82,-121,-185,64,153
,1009,2016/11/29 04:46:54.78,-3436,8690,-13706,102,364,72,-184,-192,8,188
,1010,2016/11/29 04:46:54.79,-3367,8726,-13682,83,338,71,-67,-119,52,93
,1011,2016/11/29 04:46:54.80,-3394,8671,-13707,61,367,52,-203,-241,38,222
,1012,2016/11/29 04:46:54.81,-3384,8645,-13684,62,360,44,-95,-109,14,102
,1013,2016/11/29 04:46:54.82,-3256,8673,-13685,40,363,13,-135,-194,59,164
,1014,2016/11/29 04:46:54.83,-3362,8729,-13685,-13,349,-13,-189,-187,-2,188
,1015,2016/11/29 04:46:54.84,-3295,8717,-13780,-63,354,-44,-66,-101,35,83
,1016,2016/11/29 04:46:54.85,-3320,8695,-13753,-135,361,-53,-221,-245,24,233
,1017,2016/11/29 04:46:54.86,-3295,8734,-13684,-210,324,-89,-101,-104,3,102
,1018,2016/11/29 04:46:54.87,-3226,8725,-13712,-276,335,-92,-132,-188,56,160
,1019,2016/11/29 04:46:54.88,-3269,8685,-13779,-337,340,-103,-198,-204,6,201
,1020,2016/11/29 04:46:54.89,-3225,8709,-13734,-370,336,-117,-64,-116,52,90
,1021,2016/11/29 04:46:54.90,-3277,8721,-13733,-411,293,-139,-208,-250,42,229
,1022,2016/11/29 04:46:54.91,-3204,8790,-13661,-430,253,-140,-104,-125,21,114
,1023,2016/11/29 04:46:54.92,-3146,8761,-13644,-488,219,-147,-126,-196,70,161
,1024,2016/11/29 04:46:54.93,-3180,8759,-13652,-540,222,-145,-187,-200,13,193
,1025,2016/11/29 04:46:54.94,-3148,8718,-13680,-571,215,-112,-69,-134,65,101
,1026,2016/11/29 04:46:54.95,-3216,8796,-13687,-607,208,-86,-210,-263,53,236
,1027,2016/11/29 04:46:54.96,-3220,8793,-13688,-619,172,-54,-94,-137,43,115
,1028,2016/11/29 04:46:54.97,-3256,8811,-13746,-607,156,-17,-128,-236,108,182
,1029,2016/11/29 04:46:54.98,-3312,8808,-13705,-649,139,84,-172,-233,61,202
,1030,2016/11/29 04:46:54.99,-3237,8928,-13771,-592,53,111,-42,-164,122,103
,1031,2016/11/29 04:46:55.00,-3280,8913,-13764,-615,33,145,-195,-302,107,248
,1032,2016/11/29 04:46:55.01,-3243,8929,-13746,-598,-21,178,-67,-155,88,111
,1033,2016/11/29 04:46:55.02,-3321,8959,-13744,-590,-44,180,-100,-238,138,169
,1034,2016/11/29 04:46:55.03,-3317,8944,-13662,-567,-77,213,-164,-245,81,204
,1035,2016/11/29 04:46:55.04,-3359,8965,-13723,-552,-87,189,-32,-163,131,97
,1036,2016/11/29 04:46:55.05,-3336,8995,-13596,-507,-65,188,-178,-293,115,235
,1037,2016/11/29 04:46:55.06,-3403,9078,-13604,-500,-58,150,-64,-169,105,116
,1038,2016/11/29 04:46:55.07,-3317,9050,-13652,-523,-50,125,-86,-236,150,161
,1039,2016/11/29 04:46:55.08,-3346,9073,-13589,-533,-31,99,-139,-222,83,180
,1040,2016/11/29 04:46:55.09,-3406,8967,-13553,-534,20,73,-27,-138,111,82
,1041,2016/11/29 04:46:55.10,-3385,9000,-13442,-512,40,52,-169,-241,72,205
,1042,2016/11/29 04:46:55.11,-3344,8995,-13378,-532,100,51,-57,-91,34,74
,1043,2016/11/29 04:46:55.12,-3369,8976,-13403,-558,163,58,-112,-176,64,144
,1044,2016/11/29 04:46:55.13,-3304,8941,-13464,-625,212,87,-165,-163,-2,164
,1045,2016/11/29 04:46:55.14,-3294,9019,-13492,-686,246,108,-51,-82,31,66
,1046,2016/11/29 04:46:55.15,-3358,9084,-13542,-807,243,127,-209,-224,15,216
,1047,2016/11/29 04:46:55.16,-3238,9157,-13501,-911,253,137,-89,-82,-7,85
,1048,2016/11/29 04:46:55.17,-3326,9171,-13537,-994,238,165,-134,-171,37,152
,1049,2016/11/29 04:46:55.18,-3237,9251,-13479,-1047,237,150,-194,-180,-14,187
,1050,2016/11/29 04:46:55.19,-3237,9253,-13402,-1071,228,168,-70,-94,24,82
,1051,2016/11/29 04:46:55.20,-3182,9244,-13383,-1071,230,155,-217,-228,11,222
,1052,2016/11/29 04:46:55.21,-3183,9304,-13352,-1046,236,148,-105,-101,-4,103
,1053,2016/11/29 04:46:55.22,-3113,9409,-13313,-1032,214,83,-141,-177,36,159
,1054,2016/11/29 04:46:55.23,-3169,9514,-13314,-1002,239,31,-189,-174,-15,181
,1055,2016/11/29 04:46:55.24,-3181,9631,-13391,-1005,212,-62,-79,-107,28,93
,1056,2016/11/29 04:46:55.25,-3141,9653,-13441,-1038,206,-133,-217,-238,21,227
,1057,2016/11/29 04:46:55.26,-3170,9694,-13493,-1071,201,-203,-95,-106,11,100
,1058,2016/11/29 04:46:55.27,-3141,9732,-13516,-1072,134,-254,-143,-206,63,174
,1059,2016/11/29 04:46:55.28,-3174,9763,-13401,-1093,63,-293,-186,-198,12,192
,1060,2016/11/29 04:46:55.29,-3186,9774,-13494,-1080,39,-338,-69,-128,59,98
,1061,2016/11/29 04:46:55.30,-3158,9740,-13418,-1041,5,-316,-218,-268,50,243
,1062,2016/11/29 04:46:55.31,-3127,9677,-13376,-953,-50,-289,-85,-123,38,104
,1063,2016/11/29 04:46:55.32,-3257,9680,-13368,-901,-48,-237,-128,-210,82,169
,1064,2016/11/29 04:46:55.33,-3223,9750,-13395,-797,-77,-183,-179,-213,34,196
,1065,2016/11/29 04:46:55.34,-3124,9685,-13286,-732,-89,-123,-54,-130,76,92
,1066,2016/11/29 04:46:55.35,-3182,9706,-13301,-670,-65,-76,-201,-261,60,231
,1067,2016/11/29 04:46:55.36,-3269,9644,-13378,-568,-93,4,-82,-135,53,108
,1068,2016/11/29 04:46:55.37,-3257,9681,-13305,-526,-133,98,-123,-218,95,170
,1069,2016/11/29 04:46:55.38,-3296,9630,-13359,-451,-171,175,-165,-210,45,187
,1070,2016/11/29 04:46:55.39,-3218,9652,-13238,-383,-236,272,-55,-147,92,101
,1071,2016/11/29 04:46:55.40,-3233,9683,-13239,-341,-294,366,-195,-268,73,231
,1072,2016/11/29 04:46:55.41,-3235,9790,-13272,-282,-287,416,-67,-128,61,97
,1073,2016/11/29 04:46:55.42,-3233,9852,-13231,-246,-293,424,-120,-223,103,171
,1074,2016/11/29 04:46:55.43,-3120,9843,-13232,-206,-314,425,-153,-200,47,176
,1075,2016/11/29 04:46:55.44,-3253,9910,-13110,-163,-307,422,-34,-120,86,77
,1076,2016/11/29 04:46:55.45,-3277,9887,-13244,-135,-270,429,-188,-249,61,218
,1077,2016/11/29 04:46:55.46,-3335,9919,-13321,-146,-238,370,-59,-97,38,78
,1078,2016/11/29 04:46:55.47,-3305,9863,-13289,-88,-265,319,-120,-194,74,157
,1079,2016/11/29 04:46:55.48,-3414,9811,-13214,-48,-284,285,-170,-190,20,180
,1080,2016/11/29 04:46:55.49,-3347,9845,-13151,0,-281,243,-54,-117,63,85
,1081,2016/11/29 04:46:55.50,-3325,9814,-13204,79,-246,164,-199,-244,45,221
,1082,2016/11/29 04:46:55.51,-3390,9799,-13126,140,-184,108,-76,-111,35,93
,1083,2016/11/29 04:46:55.52,-3338,9809,-13128,244,-124,29,-123,-192,69,157
,1084,2016/11/29 04:46:55.53,-3462,9790,-13197,318,-33,-13,-158,-171,13,164
,1085,2016/11/29 04:46:55.54,-3444,9769,-13205,366,41,-80,-53,-107,54,80
,1086,2016/11/29 04:46:55.55,-3542,9687,-13177,411,80,-122,-195,-221,26,208
,1087,2016/11/29 04:46:55.56,-3407,9592,-13272,465,126,-138,-75,-80,5,77
,1088,2016/11/29 04:46:55.57,-3454,9520,-13338,533,147,-149,-140,-183,43,161
,1089,2016/11/29 04:46:55.58,-3412,9438,-13303,614,150,-135,-174,-158,-16,166
,1090,2016/11/29 04:46:55.59,-3381,9322,-13344,718,157,-128,-65,-93,28,79
,1091,2016/11/29 04:46:55.60,-3353,9338,-13366,800,156,-128,-217,-227,10,222
,1092,2016/11/29 04:46:55.61,-3270,9278,-13427,866,168,-135,-84,-78,-6,81
,1093,2016/11/29 04:46:55.62,-3226,9263,-13432,886,194,-157,-139,-173,34,156
,1094,2016/11/29 04:46:55.63,-3251,9263,-13557,877,236,-200,-178,-155,-23,166
,1095,2016/11/29 04:46:55.64,-3216,9202,-13559,835,227,-202,-65,-76,11,70
,1096,2016/11/29 04:46:55.65,-3152,9305,-13599,760,185,-189,-215,-200,-15,207
,1097,2016/11/29 04:46:55.66,-3181,9258,-13482,710,153,-148,-97,-65,-32,81
,1098,2016/11/29 04:46:55.67,-3168,9294,-13352,652,126,-130,-157,-164,7,160
,1099,2016/11/29 04:46:55.68,-3198,9237,-13421,584,87,-65,-192,-152,-40,172
,1100,2016/11/29 04:46:55.69,-3115,9171,-13277,573,69,20,-90,-104,14,97
,1101,2016/11/29 04:46:55.70,-3100,9194,-13324,582,43,98,-226,-228,2,227
,1102,2016/11/29 04:46:55.71,-3186,9056,-13416,603,13,216,-93,-94,1,93
,1103,2016/11/29 04:46:55.72,-3231,9015,-13409,635,-20,309,-153,-204,51,178
,1104,2016/11/29 04:46:55.73,-3242,9105,-13505,697,-38,413,-172,-173,1,172
,1105,2016/11/29 04:46:55.74,-3254,9129,-13529,673,-91,485,-62,-111,49,86
,1106,2016/11/29 04:46:55.75,-3241,9174,-13483,635,-119,507,-213,-238,25,225
,1107,2016/11/29 04:46:55.76,-3312,9303,-13485,579,-129,531,-74,-83,9,78
,1108,2016/11/29 04:46:55.77,-3414,9369,-13462,504,-131,531,-136,-177,41,156
,1109,2016/11/29 04:46:55.78,-3394,9438,-13504,415,-104,489,-173,-155,-18,164
,1110,2016/11/29 04:46:55.79,-3398,9359,-13487,351,-77,449,-66,-81,15,73
,1111,2016/11/29 04:46:55.80,-3354,9380,-13486,327,-20,389,-215,-205,-10,210
,1112,2016/11/29 04:46:55.81,-3445,9274,-13445,367,13,322,-92,-68,-24,80
,1113,2016/11/29 04:46:55.82,-3435,9182,-13429,457,97,264,-155,-164,9,159
,1114,2016/11/29 04:46:55.83,-3387,9123,-13386,621,154,195,-185,-137,-48,161
,1115,2016/11/29 04:46:55.84,-3334,9095,-13406,761,244,134,-92,-91,-1,91
,1116,2016/11/29 04:46:55.85,-3308,9130,-13399,896,358,71,-231,-204,-27,217
,1117,2016/11/29 04:46:55.86,-3317,9053,-13513,961,451,-21,-103,-62,-41,82
,1118,2016/11/29 04:46:55.87,-3299,9009,-13557,1000,513,-93,-172,-172,0,172
,1119,2016/11/29 04:46:55.88,-3321,8996,-13542,983,572,-184,-190,-131,-59,160
,1120,2016/11/29 04:46:55.89,-3210,8948,-13582,900,629,-259,-93,-74,-19,83
,1121,2016/11/29 04:46:55.90,-3196,8911,-13546,787,678,-334,-240,-202,-38,221
,1122,2016/11/29 04:46:55.91,-3251,8854,-13553,669,715,-389,-105,-55,-50,80
,1123,2016/11/29 04:46:55.92,-3195,8738,-13637,571,695,-409,-174,-166,-8,170
,1124,2016/11/29 04:46:55.93,-3183,8733,-13623,466,669,-416,-200,-146,-54,173
,1125,2016/11/29 04:46:55.94,-3133,8720,-13564,397,627,-410,-98,-100,2,99
,1126,2016/11/29 04:46:55.95,-3059,8630,-13564,336,601,-408,-238,-226,-12,232
,1127,2016/11/29 04:46:55.96,-3057,8680,-13603,260,615,-398,-106,-96,-10,101
,1128,2016/11/29 04:46:55.97,-3056,8717,-13656,175,602,-400,-169,-198,29,183
,1129,2016/11/29 04:46:55.98,-3058,8668,-13807,68,595,-362,-185,-165,-20,175
,1130,2016/11/29 04:46:55.99,-3102,8677,-13779,-4,578,-331,-86,-120,34,103
,1131,2016/11/29 04:46:56.00,-2983,8664,-13777,-51,546,-301,-221,-232,11,226
,1132,2016/11/29 04:46:56.01,-3011,8661,-13711,-70,532,-230,-84,-94,10,89
,1133,2016/11/29 04:46:56.02,-3012,8715,-13719,-56,515,-168,-149,-202,53,175
,1134,2016/11/29 04:46:56.03,-3059,8753,-13784,-35,496,-98,-166,-165,-1,165
,1135,2016/11/29 04:46:56.04,-3080,8748,-13691,-10,490,-43,-69,-116,47,92
,1136,2016/11/29 04:46:56.05,-3066,8799,-13668,21,493,27,-215,-237,22,226
,1137,2016/11/29 04:46:56.06,-3009,8887,-13728,45,487,82,-81,-91,10,86
,1138,2016/11/29 04:46:56.07,-2992,8942,-13681,93,467,117,-159,-203,44,181
,1139,2016/11/29 04:46:56.08,-3047,8916,-13746,117,449,133,-177,-165,-12,171
,1140,2016/11/29 04:46:56.09,-3032,8922,-13746,137,403,143,-84,-116,32,100
,1141,2016/11/29 04:46:56.10,-3056,8863,-13814,159,359,176,-225,-232,7,228
,1142,2016/11/29 04:46:56.11,-2986,8891,-13820,169,334,147,-92,-98,6,95
,1143,2016/11/29 04:46:56.12,-3087,8903,-13754,190,278,142,-164,-207,43,185
,1144,2016/11/29 04:46:56.13,-3016,8936,-13784,192,243,120,-171,-156,-15,163
,1145,2016/11/29 04:46:56.14,-3067,8968,-13806,153,215,80,-87,-120,33,103
,1146,2016/11/29 04:46:56.15,-2950,8941,-13796,101,183,24,-225,-224,-1,224
,1147,2016/11/29 04:46:56.16,-3022,8901,-13764,86,187,-21,-92,-91,-1,91
,1148,2016/11/29 04:46:56.17,-3022,8895,-13786,44,182,-77,-175,-213,38,194
,1149,2016/11/29 04:46:56.18,-2892,8828,-13675,3,187,-107,-180,-160,-20,170
,1150,2016/11/29 04:46:56.19,-2961,8867,-13591,14,210,-154,-98,-131,33,114
,1151,2016/11/29 04:46:56.20,-2967,8913,-13682,-29,254,-174,-236,-242,6,239
,1152,2016/11/29 04:46:56.21,-2880,8913,-13677,-74,283,-194,-94,-101,7,97
,1153,2016/11/29 04:46:56.22,-3026,8873,-13710,-98,294,-201,-175,-223,48,199
,1154,2016/11/29 04:46:56.23,-2844,8886,-13748,-152,286,-183,-177,-173,-4,175
,1155,2016/11/29 04:46:56.24,-2936,8975,-13716,-228,269,-144,-89,-142,53,115
,1156,2016/11/29 04:46:56.25,-3088,8952,-13742,-307,266,-118,-222,-249,27,235
,1157,2016/11/29 04:46:56.26,-3006,8886,-13808,-332,241,-42,-85,-119,34,102
,1158,2016/11/29 04:46:56.27,-2987,8883,-13805,-332,167,34,-164,-234,70,199
,1159,2016/11/29 04:46:56.28,-2917,8831,-13907,-321,101,144,-164,-170,6,167
,1160,2016/11/29 04:46:56.29,-3027,8844,-13910,-224,39,230,-80,-140,60,110
,1161,2016/11/29 04:46:56.30,-3026,8890,-13863,-163,-57,321,-218,-239,21,228
,1162,2016/11/29 04:46:56.31,-3157,8894,-13809,-94,-121,410,-78,-95,17,86
,1163,2016/11/29 04:46:56.32,-3029,8946,-13691,-26,-151,480,-165,-212,47,188
,1164,2016/11/29 04:46:56.33,-2999,8967,-13708,26,-144,514,-167,-146,-21,156
,1165,2016/11/29 04:46:56.34,-3011,9019,-13615,105,-99,522,-89,-117,28,103
,1166,2016/11/29 04:46:56.35,-3007,9072,-13586,137,-55,507,-228,-212,-16,220
,1167,2016/11/29 04:46:56.36,-3010,9091,-13610,169,50,479,-96,-74,-22,85
,1168,2016/11/29 04:46:56.37,-3012,9044,-13576,190,124,430,-192,-196,4,194
,1169,2016/11/29 04:46:56.38,-3006,9080,-13579,194,209,371,-196,-135,-61,165
,1170,2016/11/29 04:46:56.39,-2907,9130,-13681,176,268,280,-118,-109,-9,113
,1171,2016/11/29 04:46:56.40,-2983,9036,-13688,147,307,217,-255,-214,-41,234
,1172,2016/11/29 04:46:56.41,-2959,9067,-13697,126,353,143,-118,-80,-38,99
,1173,2016/11/29 04:46:56.42,-2970,9061,-13722,97,367,55,-205,-212,7,208
,1174,2016/11/29 04:46:56.43,-2903,9056,-13738,84,376,-4,-199,-154,-45,176
,1175,2016/11/29 04:46:56.44,-2919,9002,-13762,79,383,-67,-114,-133,19,123
,1176,2016/11/29 04:46:56.45,-2924,9012,-13768,76,365,-111,-244,-234,-10,239
,1177,2016/11/29 04:46:56.46,-2912,8988,-13787,70,374,-152,-101,-98,-3,99
,1178,2016/11/29 04:46:56.47,-2923,8954,-13811,57,320,-172,-186,-223,37,204
,1179,2016/11/29 04:46:56.48,-2924,8886,-13806,29,351,-189,-183,-158,-25,170
,1180,2016/11/29 04:46:56.49,-2851,8851,-13776,60,317,-174,-103,-136,33,119
,1181,2016/11/29 04:46:56.50,-2799,8846,-13770,74,294,-176,-235,-231,-4,233
,1182,2016/11/29 04:46:56.51,-2872,8814,-13787,95,274,-186,-97,-96,-1,96
,1183,2016/11/29 04:46:56.52,-2823,8786,-13846,80,290,-157,-182,-221,39,201
,1184,2016/11/29 04:46:56.53,-2918,8836,-13797,81,236,-145,-176,-152,-24,164
,1185,2016/11/29 04:46:56.54,-2768,8722,-13787,102,236,-125,-96,-132,36,114
,1186,2016/11/29 04:46:56.55,-2847,8792,-13817,132,239,-90,-232,-230,-2,231
,1187,2016/11/29 04:46:56.56,-2864,8806,-13901,147,228,-62,-92,-94,2,93
,1188,2016/11/29 04:46:56.57,-2740,8799,-13813,147,178,-22,-181,-217,36,199
,1189,2016/11/29 04:46:56.58,-2773,8754,-13743,162,213,-8,-181,-150,-31,165
,1190,2016/11/29 04:46:56.59,-2899,8807,-13769,170,200,14,-101,-123,22,112
,1191,2016/11/29 04:46:56.60,-2834,8802,-13780,172,175,39,-238,-224,-14,231
,1192,2016/11/29 04:46:56.61,-2919,8793,-13898,156,201,48,-101,-90,-11,95
,1193,2016/11/29 04:46:56.62,-2814,8759,-13840,154,195,54,-184,-218,34,201
,1194,2016/11/29 04:46:56.63,-2907,8802,-13881,162,181,54,-183,-151,-32,167
,1195,2016/11/29 04:46:56.64,-2758,8765,-13860,134,165,40,-101,-126,25,113
,1196,2016/11/29 04:46:56.65,-2855,8764,-13819,122,137,26,-234,-221,-13,227
,1197,2016/11/29 04:46:56.66,-2745,8732,-13775,141,147,6,-92,-85,-7,88
,1198,2016/11/29 04:46:56.67,-2838,8763,-13798,156,150,-7,-177,-204,27,190
,1199,2016/11/29 04:46:56.68,-2675,8743,-13704,149,169,-26,-179,-137,-42,158
,1200,2016/11/29 04:46:56.69,-2824,8722,-13735,150,203,-53,-99,-108,9,103
,1201,2016/11/29 04:46:56.70,-2766,8769,-13824,143,223,-73,-238,-209,-29,223
,1202,2016/11/29 04:46:56.71,-2743,8802,-13869,96,215,-94,-104,-72,-32,88
,1203,2016/11/29 04:46:56.72,-2768,8676,-13768,86,206,-105,-189,-199,10,194
,1204,2016/11/29 04:46:56.73,-2699,8679,-13713,76,201,-85,-190,-136,-54,163
,1205,2016/11/29 04:46:56.74,-2708,8683,-13788,27,195,-97,-112,-122,10,117
,1206,2016/11/29 04:46:56.75,-2769,8722,-13879,-45,217,-85,-248,-228,-20,238
,1207,2016/11/29 04:46:56.76,-2798,8702,-13961,-87,180,-54,-109,-103,-6,106
,1208,2016/11/29 04:46:56.77,-2660,8791,-13906,-181,134,-40,-197,-237,40,217
,1209,2016/11/29 04:46:56.78,-2735,8786,-13838,-237,151,-13,-189,-169,-20,179
,1210,2016/11/29 04:46:56.79,-2670,8860,-13888,-279,106,30,-109,-158,49,133
,1211,2016/11/29 04:46:56.80,-2777,8841,-13936,-333,103,77,-234,-242,8,238
,1212,2016/11/29 04:46:56.81,-2732,8799,-13970,-389,45,137,-91,-97,6,94
,1213,2016/11/29 04:46:56.82,-2766,8773,-13941,-367,-23,194,-186,-215,29,200
,1214,2016/11/29 04:46:56.83,-2796,8789,-13938,-331,-73,284,-178,-127,-51,152
,1215,2016/11/29 04:46:56.84,-2762,8842,-13918,-287,-124,364,-115,-112,-3,113
,1216,2016/11/29 04:46:56.85,-2737,8814,-13866,-225,-152,415,-252,-202,-50,227
,1217,2016/11/29 04:46:56.86,-2731,8858,-13863,-151,-175,453,-119,-69,-50,94
,1218,2016/11/29 04:46:56.87,-2738,8896,-13818,-77,-199,469,-218,-204,-14,211
,1219,2016/11/29 04:46:56.88,-2771,8889,-13850,-29,-196,442,-208,-128,-80,168
,1220,2016/11/29 04:46:56.89,-2850,8910,-13839,61,-194,431,-137,-125,-12,131
,1221,2016/11/29 04:46:56.90,-2828,8948,-13821,109,-180,406,-264,-218,-46,241
,1222,2016/11/29 04:46:56.91,-2782,9013,-13863,129,-201,369,-123,-87,-36,105
,1223,2016/11/29 04:46:56.92,-2727,8934,-13850,121,-183,292,-208,-217,9,212
,1224,2016/11/29 04:46:56.93,-2841,8918,-13877,152,-142,215,-196,-144,-52,170
,1225,2016/11/29 04:46:56.94,-2828,8871,-13895,178,-172,136,-120,-137,17,128
,1226,2016/11/29 04:46:56.95,-2753,8812,-13835,203,-140,94,-251,-243,-8,247
,1227,2016/11/29 04:46:56.96,-2743,8748,-13865,251,-157,30,-107,-127,20,117
,1228,2016/11/29 04:46:56.97,-2749,8686,-13794,278,-78,-8,-186,-271,85,228
,1229,2016/11/29 04:46:56.98,-2826,8684,-13719,318,-65,-46,-166,-210,44,188
,1230,2016/11/29 04:46:56.99,-2805,8640,-13784,318,-27,-38,-64,-180,116,122
,1231,2016/11/29 04:46:57.00,-2750,8583,-13849,308,-24,-35,-192,-246,54,219
,1232,2016/11/29 04:46:57.01,-2691,8623,-13773,285,21,-4,-58,-89,31,73
,1233,2016/11/29 04:46:57.02,-2759,8517,-13794,182,126,28,-166,-212,46,189
,1234,2016/11/29 04:46:57.03,-2800,8517,-13788,122,133,72,-173,-148,-25,160
,1235,2016/11/29 04:46:57.04,-2694,8510,-13878,40,115,126,-104,-162,58,133
,1236,2016/11/29 04:46:57.05,-2782,8423,-13938,-80,138,192,-233,-275,42,254
,1237,2016/11/29 04:46:57.06,-2701,8393,-13953,-161,75,269,-78,-161,83,119
,1238,2016/11/29 04:46:57.07,-2619,8255,-14000,-262,67,369,-154,-292,138,223
,1239,2016/11/29 04:46:57.08,-2665,8212,-13957,-324,-46,473,-134,-222,88,178
,1240,2016/11/29 04:46:57.09,-2748,8233,-14012,-429,-92,589,-51,-213,162,132
,1241,2016/11/29 04:46:57.10,-2676,8319,-13956,-546,-196,677,-181,-297,116,239
,1242,2016/11/29 04:46:57.11,-2702,8346,-13904,-713,-265,777,-34,-158,124,96
,1243,2016/11/29 04:46:57.12,-2744,8386,-13853,-893,-381,888,-131,-278,147,204
,1244,2016/11/29 04:46:57.13,-2721,8487,-13847,-1060,-448,989,-125,-200,75,162
,1245,2016/11/29 04:46:57.14,-2842,8592,-13739,-1252,-535,1076,-50,-192,142,121
,1246,2016/11/29 04:46:57.15,-2921,8625,-13860,-1404,-644,1156,-185,-280,95,232
,1247,2016/11/29 04:46:57.16,-2695,8716,-13717,-1457,-1028,1289,-39,-142,103,90
,1248,2016/11/29 04:46:57.17,-2915,8840,-13761,-1584,-928,1361,-136,-268,132,202
,1249,2016/11/29 04:46:57.18,-2965,8808,-13574,-1683,-761,1422,-127,-188,61,157
,1250,2016/11/29 04:46:57.19,-2680,9117,-13410,-1598,-878,1506,-49,-172,123,110
,1251,2016/11/29 04:46:57.20,-2856,9293,-13424,-1632,-440,1530,-188,-252,64,220
,1252,2016/11/29 04:46:57.21,-2925,9389,-13546,-1572,-375,1514,-54,-114,60,84
,1253,2016/11/29 04:46:57.22,-2824,9588,-13367,-1443,-359,1474,-161,-241,80,201
,1254,2016/11/29 04:46:57.23,-2884,9549,-13183,-1374,-35,1403,-153,-164,11,158
,1255,2016/11/29 04:46:57.24,-2883,9597,-13188,-1149,161,1283,-80,-149,69,114
,1256,2016/11/29 04:46:57.25,-2737,9866,-13622,-874,-51,1174,-209,-220,11,214
,1257,2016/11/29 04:46:57.26,-2555,9975,-13272,-856,154,1055,-70,-72,2,71
,1258,2016/11/29 04:46:57.27,-2959,9744,-13398,-838,461,893,-180,-200,20,190
,1259,2016/11/29 04:46:57.28,-2625,9786,-13376,-702,379,754,-166,-112,-54,139
,1260,2016/11/29 04:46:57.29,-2409,9639,-13131,-605,610,634,-100,-86,-14,93
,1261,2016/11/29 04:46:57.30,-2599,9897,-13891,-426,331,531,-242,-170,-72,206
,1262,2016/11/29 04:46:57.31,-2461,9900,-13490,-508,452,426,-126,-62,-64,94
,1263,2016/11/29 04:46:57.32,-2631,9507,-13625,-482,405,336,-227,-227,0,227
,1264,2016/11/29 04:46:57.33,-2590,9651,-13629,-414,442,273,-196,-162,-34,179
,1265,2016/11/29 04:46:57.34,-2767,9535,-13548,-338,414,219,-114,-167,53,140
,1266,2016/11/29 04:46:57.35,-2681,9616,-13747,-203,232,199,-232,-256,24,244
,1267,2016/11/29 04:46:57.36,-2725,9700,-13644,-110,6,156,-81,-129,48,105
,1268,2016/11/29 04:46:57.37,-2576,9560,-13486,-111,39,144,-175,-261,86,218
,1269,2016/11/29 04:46:57.38,-2745,9502,-13614,-67,85,100,-148,-177,29,162
,1270,2016/11/29 04:46:57.39,-2597,9600,-13541,8,-48,84,-79,-180,101,129
,1271,2016/11/29 04:46:57.40,-2717,9356,-13411,22,1,80,-200,-256,56,228
,1272,2016/11/29 04:46:57.41,-2725,9521,-13501,76,-142,31,-53,-123,70,88
,1273,2016/11/29 04:46:57.42,-2793,9642,-13608,93,-210,-12,-164,-254,90,209
,1274,2016/11/29 04:46:57.43,-2682,9565,-13356,95,-218,-67,-140,-165,25,152
,1275,2016/11/29 04:46:57.44,-2724,9550,-13223,69,-113,-105,-84,-174,90,129
,1276,2016/11/29 04:46:57.45,-2715,9624,-13314,92,87,-195,-206,-248,42,227
,1277,2016/11/29 04:46:57.46,-2814,9798,-13365,100,54,-274,-61,-115,54,88
,1278,2016/11/29 04:46:57.47,-2698,9824,-13249,63,41,-364,-171,-240,69,205
,1279,2016/11/29 04:46:57.48,-2860,9581,-13323,107,52,-444,-139,-130,-9,134
,1280,2016/11/29 04:46:57.49,-2855,9813,-13624,283,-171,-512,-89,-123,34,106
,1281,2016/11/29 04:46:57.50,-2888,9757,-13315,279,-101,-574,-218,-190,-28,204
,1282,2016/11/29 04:46:57.51,-2858,9458,-13232,400,58,-651,-85,-57,-28,71
,1283,2016/11/29 04:46:57.52,-2812,9705,-13673,409,69,-693,-203,-187,-16,195
,1284,2016/11/29 04:46:57.53,-2690,9246,-13277,427,342,-727,-172,-84,-88,128
,1285,2016/11/29 04:46:57.54,-2685,9123,-13376,597,376,-694,-131,-90,-41,110
,1286,2016/11/29 04:46:57.55,-2696,9015,-13413,612,489,-600,-251,-141,-110,196
,1287,2016/11/29 04:46:57.56,-2666,8788,-13540,634,571,-440,-125,0,-125,62
,1288,2016/11/29 04:46:57.57,-2620,8463,-13550,699,775,-278,-250,-135,-115,192
,1289,2016/11/29 04:46:57.58,-2740,8520,-13906,811,791,-53,-229,-45,-184,137
,1290,2016/11/29 04:46:57.59,-2780,8691,-13914,749,702,185,-191,-76,-115,133
,1291,2016/11/29 04:46:57.60,-2666,8659,-13821,584,812,343,-304,-160,-144,232
,1292,2016/11/29 04:46:57.61,-2518,8804,-13969,407,849,523,-162,-51,-111,106
,1293,2016/11/29 04:46:57.62,-2530,8908,-13991,282,854,645,-261,-196,-65,228
,1294,2016/11/29 04:46:57.63,-2636,8991,-14056,229,807,711,-212,-102,-110,157
,1295,2016/11/29 04:46:57.64,-2539,8992,-14061,211,698,745,-161,-128,-33,144
,1296,2016/11/29 04:46:57.65,-2547,9078,-13965,247,562,753,-268,-199,-69,233
,1297,2016/11/29 04:46:57.66,-2486,9095,-13839,342,516,669,-123,-90,-33,106
,1298,2016/11/29 04:46:57.67,-2536,9258,-13818,410,484,583,-226,-229,3,227
,1299,2016/11/29 04:46:57.68,-2445,9249,-13560,510,397,451,-174,-129,-45,151
,1300,2016/11/29 04:46:57.69,-2448,9204,-13618,567,453,305,-128,-146,18,137
,1301,2016/11/29 04:46:57.70,-2338,9221,-13524,619,455,167,-239,-204,-35,221
,1302,2016/11/29 04:46:57.71,-2425,9031,-13386,667,508,41,-101,-86,-15,93
,1303,2016/11/29 04:46:57.72,-2210,8941,-13284,684,562,-111,-216,-226,10,221
,1304,2016/11/29 04:46:57.73,-2378,8961,-13504,687,734,-208,-170,-125,-45,147
,1305,2016/11/29 04:46:57.74,-2305,8877,-13503,658,720,-314,-127,-155,28,141
,1306,2016/11/29 04:46:57.75,-2284,8898,-13554,572,900,-373,-235,-217,-18,226
,1307,2016/11/29 04:46:57.76,-2326,8887,-13655,493,985,-433,-90,-102,12,96
,1308,2016/11/29 04:46:57.77,-2219,8888,-13790,362,906,-453,-201,-239,38,220
,1309,2016/11/29 04:46:57.78,-2247,8932,-13869,177,1002,-466,-146,-129,-17,137
,1310,2016/11/29 04:46:57.79,-2181,8794,-13898,43,991,-448,-105,-147,42,126
,1311,2016/11/29 04:46:57.80,-2214,8734,-13803,-54,1058,-414,-221,-202,-19,211
,1312,2016/11/29 04:46:57.81,-2061,8737,-13934,-64,941,-384,-91,-93,2,92
,1313,2016/11/29 04:46:57.82,-2132,8705,-13899,-96,886,-310,-212,-240,28,226
,1314,2016/11/29 04:46:57.83,-2099,8719,-13956,-122,900,-248,-160,-144,-16,152
,1315,2016/11/29 04:46:57.84,-2124,8759,-13908,-35,744,-189,-114,-176,62,145
,1316,2016/11/29 04:46:57.85,-2043,8903,-13997,-45,654,-146,-216,-227,11,221
,1317,2016/11/29 04:46:57.86,-2133,8768,-13937,-93,524,-72,-72,-106,34,89
,1318,2016/11/29 04:46:57.87,-2155,8762,-13988,-138,603,6,-194,-240,46,217
,1319,2016/11/29 04:46:57.88,-2072,8873,-14126,-98,319,63,-142,-127,-15,134
,1320,2016/11/29 04:46:57.89,-2164,8823,-14042,-138,382,134,-114,-165,51,139
,1321,2016/11/29 04:46:57.90,-2148,8706,-14099,-106,101,225,-227,-231,4,229
,1322,2016/11/29 04:46:57.91,-2234,8795,-14002,-116,82,319,-89,-144,55,116
,1323,2016/11/29 04:46:57.92,-2248,8954,-14101,-121,5,347,-196,-299,103,247
,1324,2016/11/29 04:46:57.93,-2190,8913,-13844,-112,-99,395,-111,-175,64,143
,1325,2016/11/29 04:46:57.94,-2178,8996,-13881,-162,6,429,-65,-174,109,119
,1326,2016/11/29 04:46:57.95,-2079,8924,-13639,-118,-128,447,-177,-183,6,180
,1327,2016/11/29 04:46:57.96,-2277,8958,-13752,-121,-21,447,-58,-34,-24,46
,1328,2016/11/29 04:46:57.97,-2174,9024,-13731,-76,-67,431,-209,-158,-51,183
,1329,2016/11/29 04:46:57.98,-2293,8947,-13696,-60,56,412,-190,-61,-129,125
,1330,2016/11/29 04:46:57.99,-2162,8966,-13696,-92,180,382,-176,-126,-50,151
,1331,2016/11/29 04:46:58.00,-2295,8998,-13698,-106,320,304,-274,-196,-78,235
,1332,2016/11/29 04:46:58.01,-2352,9139,-13840,-138,323,253,-130,-105,-25,117
,1333,2016/11/29 04:46:58.02,-2242,9017,-13593,-197,231,178,-252,-285,33,268
,1334,2016/11/29 04:46:58.03,-2275,9135,-13676,-285,355,84,-157,-183,26,170
,1335,2016/11/29 04:46:58.04,-2250,9248,-13798,-343,68,-43,-76,-167,91,121
,1336,2016/11/29 04:46:58.05,-2154,9172,-13453,-374,85,-121,-174,-143,-31,158
,1337,2016/11/29 04:46:58.06,-2218,9222,-13619,-482,287,-250,-81,7,-88,37
,1338,2016/11/29 04:46:58.07,-2141,9271,-13730,-698,528,-377,-261,-160,-101,210
,1339,2016/11/29 04:46:58.08,-2155,9263,-13515,-875,752,-541,-236,-107,-129,171
,1340,2016/11/29 04:46:58.09,-2253,9335,-13724,-933,849,-654,-182,-174,-8,178
,1341,2016/11/29 04:46:58.10,-2065,9300,-13697,-800,528,-711,-243,-198,-45,220
,1342,2016/11/29 04:46:58.11,-2274,9380,-13781,-769,873,-763,-83,-24,-59,53
,1343,2016/11/29 04:46:58.12,-2048,9374,-13604,-717,854,-801,-223,-116,-107,169
,1344,2016/11/29 04:46:58.13,-2381,9315,-13911,-719,1140,-827,-214,-12,-202,113
,1345,2016/11/29 04:46:58.14,-1973,9170,-13625,-459,806,-836,-212,-92,-120,152
,1346,2016/11/29 04:46:58.15,-1909,9370,-13791,-223,737,-797,-307,-166,-141,236
,1347,2016/11/29 04:46:58.16,-1774,9290,-13562,-52,851,-796,-151,-43,-108,97
,1348,2016/11/29 04:46:58.17,-1833,9189,-13512,124,834,-767,-268,-182,-86,225
,1349,2016/11/29 04:46:58.18,-2158,9331,-14230,287,1020,-740,-221,-97,-124,159
,1350,2016/11/29 04:46:58.19,-1778,9566,-13920,617,283,-733,-175,-146,-29,160
,1351,2016/11/29 04:46:58.20,-1802,9416,-13752,706,371,-703,-262,-200,-62,231
,1352,2016/11/29 04:46:58.21,-1855,9228,-13748,800,562,-755,-114,-86,-28,100
,1353,2016/11/29 04:46:58.22,-1747,9338,-13725,934,632,-772,-246,-248,2,247
,1354,2016/11/29 04:46:58.23,-2139,9257,-13897,897,778,-807,-193,-183,-10,188
,1355,2016/11/29 04:46:58.24,-1768,9391,-14404,1029,243,-836,-155,-264,109,209
,1356,2016/11/29 04:46:58.25,-1837,9050,-13954,791,295,-809,-244,-364,120,304
,1357,2016/11/29 04:46:58.26,-1980,8538,-13857,736,422,-769,-76,-304,228,190
,1358,2016/11/29 04:46:58.27,-2201,8704,-13877,587,1340,-709,-163,-457,294,310
,1359,2016/11/29 04:46:58.28,-1988,8786,-14326,598,867,-685,-45,-373,328,209
,1360,2016/11/29 04:46:58.29,-2003,8756,-13942,376,1249,-568,25,-399,424,187
,1361,2016/11/29 04:46:58.30,-2043,8321,-13864,466,1259,-451,-46,-432,386,239
,1362,2016/11/29 04:46:58.31,-2086,8685,-14157,629,967,-318,116,-310,426,97
,1363,2016/11/29 04:46:58.32,-1980,8644,-13815,848,433,-192,-9,-415,406,212
,1364,2016/11/29 04:46:58.33,-1950,8765,-13779,932,340,-109,56,-292,348,118
,1365,2016/11/29 04:46:58.34,-1995,9040,-13816,782,613,-119,79,-303,382,112
,1366,2016/11/29 04:46:58.35,-1845,8935,-13761,632,591,-174,-34,-327,293,180
,1367,2016/11/29 04:46:58.36,-2507,8786,-14042,464,444,-228,99,-194,293,47
,1368,2016/11/29 04:46:58.37,-1571,8922,-13342,929,83,-365,-48,-305,257,176
,1369,2016/11/29 04:46:58.38,-1837,9163,-13690,861,376,-451,8,-175,183,83
,1370,2016/11/29 04:46:58.39,-2065,8911,-13856,756,721,-711,22,-186,208,82
,1371,2016/11/29 04:46:58.40,-2170,8884,-14072,882,728,-801,-99,-212,113,155
,1372,2016/11/29 04:46:58.41,-2078,8952,-14186,1015,405,-901,30,-75,105,22
,1373,2016/11/29 04:46:58.42,-2056,8407,-14022,1244,119,-927,-119,-187,68,153
,1374,2016/11/29 04:46:58.43,-2139,8662,-14150,1144,662,-897,-77,-53,-24,65
,1375,2016/11/29 04:46:58.44,-1476,8670,-14008,1185,286,-896,-83,-75,-8,79
,1376,2016/11/29 04:46:58.45,-2121,8508,-14412,1064,601,-796,-207,-113,-94,160
,1377,2016/11/29 04:46:58.46,-2376,8135,-14476,968,561,-728,-88,11,-99,38
,1378,2016/11/29 04:46:58.47,-2004,8159,-14106,1184,168,-579,-230,-122,-108,176
,1379,2016/11/29 04:46:58.48,-1974,8317,-14195,1291,-1,-452,-177,1,-178,88
,1380,2016/11/29 04:46:58.49,-1650,8406,-14212,1209,-60,-341,-169,-31,-138,100
,1381,2016/11/29 04:46:58.50,-1922,8453,-14368,892,372,-231,-275,-73,-202,174
,1382,2016/11/29 04:46:58.51,-1988,8314,-14399,815,202,-167,-150,44,-194,53
,1383,2016/11/29 04:46:58.52,-2014,8229,-14341,858,185,-52,-280,-98,-182,189
,1384,2016/11/29 04:46:58.53,-2103,8205,-14306,868,318,65,-217,21,-238,98
,1385,2016/11/29 04:46:58.54,-2122,8358,-14360,749,491,170,-206,-15,-191,110
,1386,2016/11/29 04:46:58.55,-2090,8212,-14354,711,245,242,-308,-65,-243,186
,1387,2016/11/29 04:46:58.56,-2037,8064,-14201,821,-67,357,-184,43,-227,70
,1388,2016/11/29 04:46:58.57,-2203,8169,-14149,872,17,432,-310,-105,-205,207
,1389,2016/11/29 04:46:58.58,-2009,8418,-14225,801,-213,468,-244,6,-250,119
,1390,2016/11/29 04:46:58.59,-2069,8168,-14143,727,-351,482,-228,-44,-184,136
,1391,2016/11/29 04:46:58.60,-2276,8277,-14271,614,-221,511,-319,-98,-221,208
,1392,2016/11/29 04:46:58.61,-2227,8156,-14234,544,-358,483,-187,0,-187,93
,1393,2016/11/29 04:46:58.62,-2005,8162,-14023,534,-486,463,-305,-154,-151,229
,1394,2016/11/29 04:46:58.63,-2198,8117,-14035,434,-483,400,-227,-44,-183,135
,1395,2016/11/29 04:46:58.64,-2152,8276,-14094,334,-261,339,-205,-96,-109,150
,1396,2016/11/29 04:46:58.65,-2107,8371,-14187,178,-260,237,-290,-140,-150,215
,1397,2016/11/29 04:46:58.66,-2027,8160,-14090,143,-403,190,-150,-29,-121,89
,1398,2016/11/29 04:46:58.67,-2076,8253,-14268,130,-226,173,-272,-168,-104,220
,1399,2016/11/29 04:46:58.68,-2043,8292,-14230,19,-64,138,-198,-51,-147,124
,1400,2016/11/29 04:46:58.69,-2080,8207,-14165,-47,34,96,-185,-98,-87,141
,1401,2016/11/29 04:46:58.70,-2080,8108,-14237,-11,211,84,-275,-137,-138,206
,1402,2016/11/29 04:46:58.71,-2031,8032,-14308,79,283,104,-142,-27,-115,84
,1403,2016/11/29 04:46:58.72,-2037,8106,-14352,148,248,131,-269,-167,-102,218
,1404,2016/11/29 04:46:58.73,-2124,8240,-14344,166,209,161,-198,-50,-148,124
,1405,2016/11/29 04:46:58.74,-2020,8262,-14336,157,149,206,-185,-100,-85,142
,1406,2016/11/29 04:46:58.75,-2075,8266,-14478,145,63,218,-274,-141,-133,207
,1407,2016/11/29 04:46:58.76,-1987,8171,-14408,134,-22,251,-138,-36,-102,87
,1408,2016/11/29 04:46:58.77,-1925,8129,-14397,138,-38,274,-264,-177,-87,220
,1409,2016/11/29 04:46:58.78,-1973,8167,-14343,185,-29,283,-186,-57,-129,121
,1410,2016/11/29 04:46:58.79,-2058,8141,-14348,263,23,295,-174,-107,-67,140
,1411,2016/11/29 04:46:58.80,-2080,8121,-14304,349,43,283,-263,-145,-118,204
,1412,2016/11/29 04:46:58.81,-2002,8156,-14307,470,75,238,-132,-41,-91,86
,1413,2016/11/29 04:46:58.82,-1957,8080,-14312,527,151,163,-259,-182,-77,220
,1414,2016/11/29 04:46:58.83,-1910,8175,-14319,576,157,59,-185,-62,-123,123
,1415,2016/11/29 04:46:58.84,-1952,8173,-14354,582,140,-54,-174,-114,-60,144
,1416,2016/11/29 04:46:58.85,-1853,8174,-14310,553,187,-174,-262,-151,-111,206
,1417,2016/11/29 04:46:58.86,-1956,8179,-14305,475,279,-283,-130,-48,-82,89
,1418,2016/11/29 04:46:58.87,-1898,8129,-14293,397,313,-387,-259,-191,-68,225
,1419,2016/11/29 04:46:58.88,-1940,8003,-14241,298,387,-465,-179,-72,-107,125
,1420,2016/11/29 04:46:58.89,-2067,8005,-14200,196,529,-518,-166,-126,-40,146
,1421,2016/11/29 04:46:58.90,-1944,7964,-14323,149,515,-534,-252,-162,-90,207
,1422,2016/11/29 04:46:58.91,-1924,7865,-14308,152,456,-540,-115,-55,-60,85
,1423,2016/11/29 04:46:58.92,-1892,7929,-14309,191,343,-516,-244,-195,-49,219
,1424,2016/11/29 04:46:58.93,-1930,7945,-14362,182,323,-490,-167,-72,-95,119
,1425,2016/11/29 04:46:58.94,-1882,8073,-14306,171,426,-474,-157,-127,-30,142
,1426,2016/11/29 04:46:58.95,-1959,8158,-14288,100,464,-508,-246,-162,-84,204
,1427,2016/11/29 04:46:58.96,-1861,8135,-14242,58,476,-495,-114,-64,-50,89
,1428,2016/11/29 04:46:58.97,-1833,8212,-14359,30,523,-512,-244,-213,-31,228
,1429,2016/11/29 04:46:58.98,-1842,8111,-14373,23,537,-498,-159,-94,-65,126
,1430,2016/11/29 04:46:58.99,-1838,8129,-14416,53,486,-497,-147,-149,2,148
,1431,2016/11/29 04:46:59.00,-1928,8092,-14432,91,398,-448,-234,-176,-58,205
,1432,2016/11/29 04:46:59.01,-1802,8084,-14428,152,358,-372,-99,-71,-28,85
,1433,2016/11/29 04:46:59.02,-1803,7981,-14471,188,293,-303,-233,-210,-23,221
,1434,2016/11/29 04:46:59.03,-1837,8054,-14548,229,291,-218,-154,-84,-70,119
,1435,2016/11/29 04:46:59.04,-1855,7953,-14480,315,175,-135,-151,-145,-6,148
,1436,2016/11/29 04:46:59.05,-1832,7957,-14491,372,130,-2,-238,-179,-59,208
,1437,2016/11/29 04:46:59.06,-1921,7888,-14507,414,144,125,-104,-84,-20,94
,1438,2016/11/29 04:46:59.07,-1754,7831,-14464,439,127,251,-233,-228,-5,230
,1439,2016/11/29 04:46:59.08,-2192,7774,-14731,459,104,384,-146,-102,-44,124
,1440,2016/11/29 04:46:59.09,-2280,7806,-14684,382,365,530,-135,-155,20,145
,1441,2016/11/29 04:46:59.10,-1772,7570,-14534,707,-496,637,-220,-179,-41,199
,1442,2016/11/29 04:46:59.11,-1838,7862,-14457,827,-458,766,-90,-76,-14,83
,1443,2016/11/29 04:46:59.12,-1838,7894,-14313,809,-513,792,-224,-214,-10,219
,1444,2016/11/29 04:46:59.13,-1860,7814,-14151,750,-268,810,-142,-88,-54,115
,1445,2016/11/29 04:46:59.14,-1790,7737,-14265,794,-262,759,-139,-149,10,144
,1446,2016/11/29 04:46:59.15,-1669,7855,-14417,843,-170,716,-225,-178,-47,201
,1447,2016/11/29 04:46:59.16,-1787,7890,-14453,778,-45,643,-96,-88,-8,92
,1448,2016/11/29 04:46:59.17,-1715,7817,-14425,575,161,552,-228,-231,3,229
,1449,2016/11/29 04:46:59.18,-1680,7641,-14448,524,159,472,-139,-105,-34,122
,1450,2016/11/29 04:46:59.19,-1753,7672,-14532,606,-120,390,-135,-162,27,148
,1451,2016/11/29 04:46:59.20,-1729,7685,-14367,575,-62,359,-214,-179,-35,196
,1452,2016/11/29 04:46:59.21,-1679,7760,-14388,444,128,270,-83,-82,-1,82
,1453,2016/11/29 04:46:59.22,-2129,7577,-14794,483,-162,205,-224,-221,-3,222
,1454,2016/11/29 04:46:59.23,-1705,7831,-14448,414,-55,185,-137,-96,-41,116
,1455,2016/11/29 04:46:59.24,-1544,7800,-14437,368,-223,179,-141,-160,19,150
,1456,2016/11/29 04:46:59.25,-1742,7684,-14495,162,-7,117,-220,-179,-41,199
,1457,2016/11/29 04:46:59.26,-1783,7693,-14648,150,-149,99,-90,-80,-10,85
,1458,2016/11/29 04:46:59.27,-1820,7561,-14589,251,-373,134,-230,-217,-13,223
,1459,2016/11/29 04:46:59.28,-1758,7575,-14635,302,-322,166,-133,-90,-43,111
,1460,2016/11/29 04:46:59.29,-1666,7563,-14573,276,-286,199,-144,-153,9,148
,1461,2016/11/29 04:46:59.30,-1749,7619,-14609,283,-332,214,-217,-169,-48,193
,1462,2016/11/29 04:46:59.31,-1823,7679,-14607,290,-347,232,-92,-76,-16,84
,1463,2016/11/29 04:46:59.32,-1887,7641,-14593,279,-289,248,-233,-213,-20,223
,1464,2016/11/29 04:46:59.33,-1622,7657,-14544,295,-309,256,-136,-86,-50,111
,1465,2016/11/29 04:46:59.34,-1880,7718,-14577,265,-185,232,-155,-153,-2,154
,1466,2016/11/29 04:46:59.35,-1803,7796,-14610,184,-161,202,-230,-176,-54,203
,1467,2016/11/29 04:46:59.36,-1917,7723,-14615,81,-118,173,-99,-80,-19,89
,1468,2016/11/29 04:46:59.37,-1882,7607,-14634,97,-193,163,-238,-216,-22,227
,1469,2016/11/29 04:46:59.38,-1821,7646,-14485,81,-328,170,-134,-88,-46,111
,1470,2016/11/29 04:46:59.39,-1852,7772,-14493,62,-340,170,-152,-156,4,154
,1471,2016/11/29 04:46:59.40,-1992,7687,-14678,-49,-304,167,-217,-176,-41,196
,1472,2016/11/29 04:46:59.41,-1962,7645,-14687,-151,-279,178,-90,-82,-8,86
,1473,2016/11/29 04:46:59.42,-1944,7694,-14714,-190,-279,172,-230,-220,-10,225
,1474,2016/11/29 04:46:59.43,-2039,7719,-14645,-238,-227,157,-124,-90,-34,107
,1475,2016/11/29 04:46:59.44,-1901,7764,-14632,-247,-264,142,-143,-160,17,151
,1476,2016/11/29 04:46:59.45,-2112,7867,-14608,-306,-165,133,-206,-175,-31,190
,1477,2016/11/29 04:46:59.46,-1958,7904,-14571,-378,-150,105,-77,-81,4,79
,1478,2016/11/29 04:46:59.47,-1944,7883,-14522,-451,-30,51,-222,-218,-4,220
,1479,2016/11/29 04:46:59.48,-1950,7877,-14455,-493,21,13,-116,-85,-31,100
,1480,2016/11/29 04:46:59.49,-1939,7858,-14466,-406,-181,-8,-140,-154,14,147
,1481,2016/11/29 04:46:59.50,-2021,7929,-14490,-357,-179,-52,-203,-170,-33,186
,1482,2016/11/29 04:46:59.51,-2006,7862,-14452,-346,-146,-73,-78,-78,0,78
,1483,2016/11/29 04:46:59.52,-2006,7870,-14460,-322,-187,-64,-220,-215,-5,217
,1484,2016/11/29 04:46:59.53,-2078,7769,-14502,-308,-124,-41,-112,-82,-30,97
,1485,2016/11/29 04:46:59.54,-2196,7745,-14515,-266,-161,-10,-140,-152,12,146
,1486,2016/11/29 04:46:59.55,-2122,7749,-14478,-208,-225,56,-202,-166,-36,184
,1487,2016/11/29 04:46:59.56,-2109,7752,-14411,-175,-246,93,-79,-72,-7,75
,1488,2016/11/29 04:46:59.57,-2108,7701,-14388,-148,-238,151,-222,-208,-14,215
,1489,2016/11/29 04:46:59.58,-2106,7611,-14457,-87,-196,183,-115,-75,-40,95
,1490,2016/11/29 04:46:59.59,-2095,7837,-14497,-79,-208,199,-143,-151,8,147
,1491,2016/11/29 04:46:59.60,-2118,7785,-14364,-48,-221,207,-201,-161,-40,181
,1492,2016/11/29 04:46:59.61,-2140,7845,-14291,15,-180,167,-80,-69,-11,74
,1493,2016/11/29 04:46:59.62,-1928,7900,-14314,80,-212,121,-225,-202,-23,213
,1494,2016/11/29 04:46:59.63,-2099,7862,-14346,91,-144,65,-118,-69,-49,93
,1495,2016/11/29 04:46:59.64,-2047,7922,-14379,135,-218,-20,-146,-137,-9,141
,1496,2016/11/29 04:46:59.65,-2126,7869,-14491,204,-245,-68,-205,-147,-58,176
,1497,2016/11/29 04:46:59.66,-2104,7831,-14663,220,-265,-96,-89,-59,-30,74
,1498,2016/11/29 04:46:59.67,-2127,7822,-14492,186,-259,-120,-234,-196,-38,215
,1499,2016/11/29 04:46:59.68,-2033,7739,-14452,213,-246,-141,-130,-66,-64,98
,1500,2016/11/29 04:46:59.69,-2085,7742,-14523,237,-230,-123,-159,-137,-22,148
,1501,2016/11/29 04:46:59.70,-2049,7728,-14439,251,-253,-135,-221,-150,-71,185
,1502,2016/11/29 04:46:59.71,-2002,7709,-14564,278,-224,-89,-102,-62,-40,82
,1503,2016/11/29 04:46:59.72,-1973,7617,-14636,257,-184,-34,-243,-203,-40,223
,1504,2016/11/29 04:46:59.73,-1958,7539,-14642,294,-221,9,-130,-73,-57,101
,1505,2016/11/29 04:46:59.74,-2105,7648,-14820,303,-179,83,-160,-150,-10,155
,1506,2016/11/29 04:46:59.75,-2047,7673,-14698,291,-223,136,-218,-163,-55,190
,1507,2016/11/29 04:46:59.76,-2106,7720,-14642,242,-246,198,-97,-76,-21,86
,1508,2016/11/29 04:46:59.77,-2187,7730,-14570,206,-290,237,-237,-213,-24,225
,1509,2016/11/29 04:46:59.78,-2152,7680,-14446,205,-316,290,-122,-78,-44,100
,1510,2016/11/29 04:46:59.79,-2160,7713,-14437,262,-332,304,-155,-156,1,155
,1511,2016/11/29 04:46:59.80,-2116,7714,-14558,305,-385,288,-210,-166,-44,188
,1512,2016/11/29 04:46:59.81,-2164,7715,-14477,339,-426,274,-91,-82,-9,86
,1513,2016/11/29 04:46:59.82,-2164,7654,-14478,275,-365,252,-233,-220,-13,226
,1514,2016/11/29 04:46:59.83,-2146,7715,-14499,174,-277,216,-120,-89,-31,104
,1515,2016/11/29 04:46:59.84,-2176,7725,-14405,88,-207,138,-149,-169,20,159
,1516,2016/11/29 04:46:59.85,-2161,7721,-14401,31,-137,84,-199,-172,-27,185
,1517,2016/11/29 04:46:59.86,-2160,7877,-14582,-113,-37,-22,-78,-93,15,85
,1518,2016/11/29 04:46:59.87,-2130,7929,-14630,-353,70,-96,-217,-229,12,223
,1519,2016/11/29 04:46:59.88,-2048,7874,-14662,-639,272,-202,-97,-95,-2,96
,1520,2016/11/29 04:46:59.89,-2082,7909,-14770,-833,407,-290,-131,-180,49,155
,1521,2016/11/29 04:46:59.90,-2169,7909,-14798,-947,437,-357,-176,-174,-2,175
,1522,2016/11/29 04:46:59.91,-2123,8030,-14774,-968,402,-399,-60,-100,40,80
,1523,2016/11/29 04:46:59.92,-2220,8121,-14804,-993,307,-449,-199,-228,29,213
,1524,2016/11/29 04:46:59.93,-2159,8163,-14688,-1037,222,-495,-90,-96,6,93
,1525,2016/11/29 04:46:59.94,-2213,8047,-14680,-1100,156,-517,-128,-186,58,157
,1526,2016/11/29 04:46:59.95,-2147,8024,-14623,-1054,51,-519,-177,-179,2,178
,1527,2016/11/29 04:46:59.96,-2187,7914,-14612,-931,-44,-453,-59,-107,48,83
,1528,2016/11/29 04:46:59.97,-2204,7887,-14499,-773,-36,-391,-200,-233,33,216
,1529,2016/11/29 04:46:59.98,-2166,7876,-14446,-634,23,-308,-86,-94,8,90
,1530,2016/11/29 04:46:59.99,-2231,7890,-14321,-535,134,-232,-122,-180,58,151
,1531,2016/11/29 04:47:00.00,-2239,7877,-14274,-418,181,-143,-174,-160,-14,167
,1532,2016/11/29 04:47:00.01,-2354,7851,-14317,-329,207,-54,-62,-87,25,74
,1533,2016/11/29 04:47:00.02,-2399,7894,-14299,-203,147,8,-210,-212,2,211
,1534,2016/11/29 04:47:00.03,-2308,7902,-14204,-97,100,54,-101,-71,-30,86
,1535,2016/11/29 04:47:00.04,-2320,7922,-14214,1,91,61,-142,-163,21,152
,1536,2016/11/29 04:47:00.05,-2270,7925,-14230,92,68,73,-196,-146,-50,171
,1537,2016/11/29 04:47:00.06,-2238,7927,-14231,186,3,23,-81,-78,-3,79
,1538,2016/11/29 04:47:00.07,-2163,7984,-14252,223,39,-6,-228,-206,-22,217
,1539,2016/11/29 04:47:00.08,-2189,7900,-14225,252,103,-62,-119,-66,-53,92
,1540,2016/11/29 04:47:00.09,-2118,7830,-14279,245,191,-73,-166,-161,-5,163
,1541,2016/11/29 04:47:00.10,-2211,7777,-14374,274,182,-63,-218,-141,-77,179
,1542,2016/11/29 04:47:00.11,-2182,7729,-14407,305,81,-40,-108,-74,-34,91
,1543,2016/11/29 04:47:00.12,-2190,7737,-14418,290,-60,-12,-253,-201,-52,227
,1544,2016/11/29 04:47:00.13,-2102,7745,-14483,263,-106,41,-142,-66,-76,104
,1545,2016/11/29 04:47:00.14,-2065,7743,-14519,185,-176,58,-181,-166,-15,173
,1546,2016/11/29 04:47:00.15,-2023,7658,-14514,111,-119,65,-226,-148,-78,187
,1547,2016/11/29 04:47:00.16,-2030,7557,-14564,21,-3,87,-108,-82,-26,95
,1548,2016/11/29 04:47:00.17,-1953,7578,-14638,-41,132,89,-249,-211,-38,230
,1549,2016/11/29 04:47:00.18,-2066,7661,-14742,-142,288,66,-134,-74,-60,104
,1550,2016/11/29 04:47:00.19,-2056,7725,-14788,-273,416,11,-174,-172,-2,173
,1551,2016/11/29 04:47:00.20,-1980,7924,-14855,-431,418,-62,-218,-149,-69,183
,1552,2016/11/29 04:47:00.21,-2003,8056,-14792,-615,380,-166,-108,-90,-18,99
,1553,2016/11/29 04:47:00.22,-1951,8060,-14685,-802,358,-298,-246,-218,-28,232
,1554,2016/11/29 04:47:00.23,-2010,8025,-14552,-952,356,-430,-127,-82,-45,104
,1555,2016/11/29 04:47:00.24,-2013,8097,-14492,-1024,341,-548,-163,-186,23,174
