// Data mode  : Full
// Transmission speed  : 100Hz
// Accelerometer sensor's range  : 2g
// Gyroscope sensor's range  : 250dps
//
//ARTIFACT,NUM,DATE,ACC_X,ACC_Y,ACC_Z,GYRO_X,GYRO_Y,GYRO_Z,EOG_L,EOG_R,EOG_H,EOG_V
,1,2016/11/29 07:26:44.34,-2539,7608,-14509,-233,-268,-183,-201,-165,-36,183
,2,2016/11/29 07:26:44.35,-2531,7675,-14521,-176,-236,-210,-242,-203,-39,222
,3,2016/11/29 07:26:44.36,-2580,7715,-14488,-173,-175,-236,-152,-139,-13,145
,4,2016/11/29 07:26:44.37,-2453,7695,-14474,-146,-123,-252,-217,-204,-13,210
,5,2016/11/29 07:26:44.38,-2419,7621,-14463,-136,-57,-277,-188,-148,-40,168
,6,2016/11/29 07:26:44.39,-2475,7548,-14459,-102,-24,-288,-232,-165,-67,198
,7,2016/11/29 07:26:44.40,-2531,7611,-14544,-65,62,-300,-252,-178,-74,215
,8,2016/11/29 07:26:44.41,-2515,7652,-14489,-49,99,-305,-171,-112,-59,141
,9,2016/11/29 07:26:44.42,-2512,7623,-14601,-49,135,-287,-232,-191,-41,211
,10,2016/11/29 07:26:44.43,-2520,7617,-14583,-18,143,-287,-179,-130,-49,154
,11,2016/11/29 07:26:44.44,-2427,7585,-14617,-22,164,-267,-192,-144,-48,168
,12,2016/11/29 07:26:44.45,-2471,7513,-14588,14,191,-276,-216,-177,-39,196
,13,2016/11/29 07:26:44.46,-2509,7596,-14590,34,208,-270,-166,-131,-35,148
,14,2016/11/29 07:26:44.47,-2436,7556,-14592,71,224,-258,-241,-209,-32,225
,15,2016/11/29 07:26:44.48,-2451,7528,-14574,127,218,-236,-162,-135,-27,148
,16,2016/11/29 07:26:44.49,-2395,7545,-14549,149,219,-237,-170,-134,-36,152
,17,2016/11/29 07:26:44.50,-2377,7527,-14580,189,233,-244,-207,-166,-41,186
,18,2016/11/29 07:26:44.51,-2375,7529,-14590,196,243,-241,-148,-115,-33,131
,19,2016/11/29 07:26:44.52,-2455,7441,-14630,207,234,-228,-237,-194,-43,215
,20,2016/11/29 07:26:44.53,-2332,7454,-14632,187,224,-212,-198,-152,-46,175
,21,2016/11/29 07:26:44.54,-2412,7416,-14632,172,224,-203,-229,-188,-41,208
,22,2016/11/29 07:26:44.55,-2438,7339,-14679,168,203,-178,-288,-232,-56,260
,23,2016/11/29 07:26:44.56,-2425,7389,-14673,201,213,-163,-193,-155,-38,174
,24,2016/11/29 07:26:44.57,-2394,7413,-14647,210,198,-168,-215,-199,-16,207
,25,2016/11/29 07:26:44.58,-2416,7433,-14664,190,215,-176,-116,-110,-6,113
,26,2016/11/29 07:26:44.59,-2380,7410,-14593,161,192,-173,-150,-121,-29,135
,27,2016/11/29 07:26:44.60,-2415,7339,-14688,127,169,-197,-215,-161,-54,188
,28,2016/11/29 07:26:44.61,-2368,7319,-14713,82,148,-161,-192,-122,-70,157
,29,2016/11/29 07:26:44.62,-2463,7256,-14680,39,109,-147,-284,-214,-70,249
,30,2016/11/29 07:26:44.63,-2396,7272,-14632,57,65,-122,-191,-145,-46,168
,31,2016/11/29 07:26:44.64,-2414,7298,-14580,1,33,-85,-177,-146,-31,161
,32,2016/11/29 07:26:44.65,-2378,7279,-14639,-58,93,-37,-222,-187,-35,204
,33,2016/11/29 07:26:44.66,-2360,7314,-14648,-89,114,-6,-184,-139,-45,161
,34,2016/11/29 07:26:44.67,-2417,7314,-14715,-105,99,-6,-255,-199,-56,227
,35,2016/11/29 07:26:44.68,-2316,7307,-14662,-124,102,13,-196,-145,-51,170
,36,2016/11/29 07:26:44.69,-2375,7334,-14702,-138,71,32,-217,-163,-54,190
,37,2016/11/29 07:26:44.70,-2383,7348,-14692,-151,53,23,-268,-215,-53,241
,38,2016/11/29 07:26:44.71,-2305,7356,-14729,-142,17,30,-201,-157,-44,179
,39,2016/11/29 07:26:44.72,-2417,7399,-14745,-126,-23,37,-266,-216,-50,241
,40,2016/11/29 07:26:44.73,-2384,7339,-14766,-96,-50,32,-204,-154,-50,179
,41,2016/11/29 07:26:44.74,-2414,7413,-14717,-45,-69,44,-213,-171,-42,192
,42,2016/11/29 07:26:44.75,-2320,7355,-14728,-2,-53,78,-232,-191,-41,211
,43,2016/11/29 07:26:44.76,-2411,7326,-14664,9,-49,93,-162,-122,-40,142
,44,2016/11/29 07:26:44.77,-2519,7393,-14680,6,-43,132,-242,-200,-42,221
,45,2016/11/29 07:26:44.78,-2424,7361,-14650,8,-57,153,-197,-146,-51,171
,46,2016/11/29 07:26:44.79,-2440,7332,-14597,-9,2,160,-221,-168,-53,194
,47,2016/11/29 07:26:44.80,-2402,7387,-14642,19,30,144,-251,-201,-50,226
,48,2016/11/29 07:26:44.81,-2357,7373,-14687,61,59,169,-168,-117,-51,142
,49,2016/11/29 07:26:44.82,-2410,7409,-14625,84,64,155,-206,-158,-48,182
,50,2016/11/29 07:26:44.83,-2442,7483,-14699,102,78,117,-156,-124,-32,140
,51,2016/11/29 07:26:44.84,-2342,7452,-14702,77,85,67,-204,-169,-35,186
,52,2016/11/29 07:26:44.85,-2402,7442,-14644,85,84,30,-269,-217,-52,243
,53,2016/11/29 07:26:44.86,-2384,7470,-14661,43,88,-27,-191,-135,-56,163
,54,2016/11/29 07:26:44.87,-2397,7445,-14636,8,100,-72,-224,-172,-52,198
,55,2016/11/29 07:26:44.88,-2432,7427,-14600,-18,101,-103,-146,-101,-45,123
,56,2016/11/29 07:26:44.89,-2394,7349,-14693,-27,124,-140,-162,-129,-33,145
,57,2016/11/29 07:26:44.90,-2469,7319,-14637,-15,109,-157,-202,-168,-34,185
,58,2016/11/29 07:26:44.91,-2500,7227,-14665,-41,121,-148,-150,-116,-34,133
,59,2016/11/29 07:26:44.92,-2423,7308,-14722,-79,112,-142,-242,-207,-35,224
,60,2016/11/29 07:26:44.93,-2482,7274,-14736,-103,74,-109,-180,-150,-30,165
,61,2016/11/29 07:26:44.94,-2518,7269,-14726,-192,52,-84,-183,-151,-32,167
,62,2016/11/29 07:26:44.95,-2438,7285,-14616,-246,-21,-62,-204,-165,-39,184
,63,2016/11/29 07:26:44.96,-2363,7349,-14634,-334,59,-53,-141,-102,-39,121
,64,2016/11/29 07:26:44.97,-2343,7359,-14625,-349,-9,-37,-229,-180,-49,204
,65,2016/11/29 07:26:44.98,-2435,7406,-14645,-309,-33,-39,-203,-150,-53,176
,66,2016/11/29 07:26:44.99,-2477,7386,-14711,-318,17,-25,-222,-178,-44,200
,67,2016/11/29 07:26:45.00,-2442,7407,-14713,-294,-52,-28,-275,-236,-39,255
,68,2016/11/29 07:26:45.01,-2390,7438,-14707,-254,-50,-15,-176,-171,-5,173
,69,2016/11/29 07:26:45.02,-2455,7449,-14715,-261,-68,-32,-229,-218,-11,223
,70,2016/11/29 07:26:45.03,-2451,7489,-14741,-249,-149,-19,-195,-154,-41,174
,71,2016/11/29 07:26:45.04,-2510,7423,-14641,-245,-131,9,-223,-161,-62,192
,72,2016/11/29 07:26:45.05,-2483,7441,-14609,-248,-140,39,-253,-185,-68,219
,73,2016/11/29 07:26:45.06,-2489,7469,-14626,-234,-72,60,-182,-136,-46,159
,74,2016/11/29 07:26:45.07,-2445,7470,-14562,-205,-55,71,-258,-217,-41,237
,75,2016/11/29 07:26:45.08,-2441,7487,-14632,-179,-22,93,-187,-144,-43,165
,76,2016/11/29 07:26:45.09,-2480,7447,-14662,-119,9,92,-174,-127,-47,150
,77,2016/11/29 07:26:45.10,-2538,7425,-14675,-47,-8,93,-211,-156,-55,183
,78,2016/11/29 07:26:45.11,-2459,7508,-14651,25,-50,110,-147,-88,-59,117
,79,2016/11/29 07:26:45.12,-2444,7456,-14685,1,3,113,-232,-176,-56,204
,80,2016/11/29 07:26:45.13,-2442,7475,-14647,7,-10,100,-192,-150,-42,171
,81,2016/11/29 07:26:45.14,-2454,7419,-14697,-1,-44,105,-201,-170,-31,185
,82,2016/11/29 07:26:45.15,-2385,7404,-14612,-34,-11,90,-271,-232,-39,251
,83,2016/11/29 07:26:45.16,-2390,7444,-14586,-64,66,79,-209,-157,-52,183
,84,2016/11/29 07:26:45.17,-2425,7492,-14683,-83,20,60,-269,-202,-67,235
,85,2016/11/29 07:26:45.18,-2459,7437,-14649,-139,69,52,-180,-121,-59,150
,86,2016/11/29 07:26:45.19,-2425,7455,-14693,-161,77,33,-177,-128,-49,152
,87,2016/11/29 07:26:45.20,-2400,7436,-14641,-171,90,5,-234,-175,-59,204
,88,2016/11/29 07:26:45.21,-2374,7420,-14543,-127,21,-13,-188,-130,-58,159
,89,2016/11/29 07:26:45.22,-2333,7547,-14482,-35,54,-100,-273,-218,-55,245
,90,2016/11/29 07:26:45.23,-2402,7695,-14461,106,94,-234,-222,-170,-52,196
,91,2016/11/29 07:26:45.24,-2312,7656,-14517,250,118,-390,-215,-172,-43,193
,92,2016/11/29 07:26:45.25,-2249,7680,-14434,442,165,-568,-235,-198,-37,216
,93,2016/11/29 07:26:45.26,-2095,8302,-14139,839,187,-867,-176,-134,-42,155
,94,2016/11/29 07:26:45.27,-2123,9276,-14196,1579,305,-1596,-265,-222,-43,243
,95,2016/11/29 07:26:45.28,-2081,9834,-14080,2627,491,-2826,-206,-176,-30,191
,96,2016/11/29 07:26:45.29,-2346,10660,-14372,3926,719,-4384,-183,-172,-11,177
,97,2016/11/29 07:26:45.30,-2465,10747,-14677,4782,796,-5986,-208,-208,0,208
,98,2016/11/29 07:26:45.31,-2676,10224,-14986,5179,1003,-7489,-110,-131,21,120
,99,2016/11/29 07:26:45.32,-2843,9705,-15484,5459,895,-8804,-186,-191,5,188
,100,2016/11/29 07:26:45.33,-2911,9085,-15755,5458,836,-9822,-151,-146,-5,148
,101,2016/11/29 07:26:45.34,-2921,8498,-14900,5848,546,-10804,-157,-146,-11,151
,102,2016/11/29 07:26:45.35,-2902,8027,-14702,6231,552,-11594,-177,-154,-23,165
,103,2016/11/29 07:26:45.36,-2801,7757,-15120,6367,709,-12206,-82,-66,-16,74
,104,2016/11/29 07:26:45.37,-3004,7091,-15305,6147,678,-12522,-168,-142,-26,155
,105,2016/11/29 07:26:45.38,-2997,6351,-15688,5725,1055,-12671,-137,-97,-40,117
,106,2016/11/29 07:26:45.39,-3154,5249,-15036,5153,885,-12487,-141,-106,-35,123
,107,2016/11/29 07:26:45.40,-3021,5183,-15772,4920,1263,-12219,-181,-148,-33,164
,108,2016/11/29 07:26:45.41,-2958,4388,-14710,4727,702,-11812,-101,-93,-8,97
,109,2016/11/29 07:26:45.42,-3242,4096,-14477,4802,840,-11415,-192,-188,-4,190
,110,2016/11/29 07:26:45.43,-3467,3999,-14438,4902,907,-10954,-126,-142,16,134
,111,2016/11/29 07:26:45.44,-3422,3693,-14788,4718,744,-10420,-105,-116,11,110
,112,2016/11/29 07:26:45.45,-3431,3753,-15640,4228,1004,-9857,-154,-162,8,158
,113,2016/11/29 07:26:45.46,-3542,3598,-15980,3512,1185,-9199,-89,-105,16,97
,114,2016/11/29 07:26:45.47,-3370,3192,-15080,2982,875,-8563,-176,-187,11,181
,115,2016/11/29 07:26:45.48,-3466,3318,-15160,2722,1032,-7952,-105,-133,28,119
,116,2016/11/29 07:26:45.49,-3349,3093,-14912,2591,670,-7368,-90,-106,16,98
,117,2016/11/29 07:26:45.50,-3580,3452,-15610,2193,1048,-6832,-118,-140,22,129
,118,2016/11/29 07:26:45.51,-3563,3165,-15237,1687,755,-6299,-20,-67,47,43
,119,2016/11/29 07:26:45.52,-3767,3156,-15643,1235,1151,-5807,-79,-140,61,109
,120,2016/11/29 07:26:45.53,-3690,3032,-15327,956,897,-5300,14,-82,96,34
,121,2016/11/29 07:26:45.54,-3819,3043,-15656,646,1082,-4835,24,-66,90,21
,122,2016/11/29 07:26:45.55,-3704,3159,-15664,309,1026,-4407,-1,-117,116,59
,123,2016/11/29 07:26:45.56,-3726,3066,-15637,13,1012,-3992,69,-80,149,5
,124,2016/11/29 07:26:45.57,-3915,3061,-15591,-164,1060,-3559,-26,-173,147,99
,125,2016/11/29 07:26:45.58,-3821,3193,-15521,-214,1017,-3161,9,-143,152,67
,126,2016/11/29 07:26:45.59,-3713,3325,-15581,-264,1034,-2762,-5,-136,131,70
,127,2016/11/29 07:26:45.60,-3743,3468,-15578,-266,1037,-2429,-19,-155,136,87
,128,2016/11/29 07:26:45.61,-3820,3628,-15609,-253,1069,-2137,28,-93,121,32
,129,2016/11/29 07:26:45.62,-3801,3677,-15662,-240,1125,-1900,-112,-197,85,154
,130,2016/11/29 07:26:45.63,-3910,3747,-15782,-243,1203,-1678,-68,-163,95,115
,131,2016/11/29 07:26:45.64,-3790,3725,-15895,-274,1207,-1455,-53,-124,71,88
,132,2016/11/29 07:26:45.65,-3765,3729,-15932,-277,1180,-1247,-39,-109,70,74
,133,2016/11/29 07:26:45.66,-3710,3858,-15909,-280,1145,-1069,67,-30,97,-18
,134,2016/11/29 07:26:45.67,-3711,3887,-15915,-305,1111,-884,-28,-132,104,80
,135,2016/11/29 07:26:45.68,-3699,3945,-15936,-268,1030,-744,9,-120,129,55
,136,2016/11/29 07:26:45.69,-3588,3966,-15804,-266,982,-612,-10,-134,124,72
,137,2016/11/29 07:26:45.70,-3607,3989,-15823,-221,974,-535,-61,-173,112,117
,138,2016/11/29 07:26:45.71,-3555,3938,-15883,-196,944,-459,16,-93,109,38
,139,2016/11/29 07:26:45.72,-3578,3950,-15868,-166,947,-383,-63,-153,90,108
,140,2016/11/29 07:26:45.73,-3563,3900,-15866,-153,869,-334,-12,-98,86,55
,141,2016/11/29 07:26:45.74,-3498,3921,-15854,-140,808,-300,-22,-94,72,58
,142,2016/11/29 07:26:45.75,-3527,3863,-15772,-145,739,-238,-83,-155,72,119
,143,2016/11/29 07:26:45.76,-3537,3846,-15775,-146,656,-197,-26,-120,94,73
,144,2016/11/29 07:26:45.77,-3487,3828,-15763,-163,583,-131,-115,-194,79,154
,145,2016/11/29 07:26:45.78,-3450,3845,-15841,-187,485,-73,-57,-134,77,95
,146,2016/11/29 07:26:45.79,-3345,3702,-15993,-279,412,24,-39,-115,76,77
,147,2016/11/29 07:26:45.80,-3467,3521,-16065,-459,257,137,-36,-146,110,91
,148,2016/11/29 07:26:45.81,-3415,3374,-16219,-716,92,272,61,-75,136,7
,149,2016/11/29 07:26:45.82,-3186,3225,-16188,-1116,-67,413,-39,-146,107,92
,150,2016/11/29 07:26:45.83,-2644,2434,-16033,-1480,-141,534,-41,-91,50,66
,151,2016/11/29 07:26:45.84,-3335,2108,-15913,-1119,605,572,-81,-109,28,95
,152,2016/11/29 07:26:45.85,-3093,3468,-15556,-1058,269,833,-144,-183,39,163
,153,2016/11/29 07:26:45.86,-3081,3432,-15638,-1878,268,1143,-77,-126,49,101
,154,2016/11/29 07:26:45.87,-3161,3387,-15550,-2387,222,1339,-165,-193,28,179
,155,2016/11/29 07:26:45.88,-3167,3295,-14939,-2448,456,1430,-94,-117,23,105
,156,2016/11/29 07:26:45.89,-3417,4123,-13734,-1616,714,1330,-65,-84,19,74
,157,2016/11/29 07:26:45.90,-3439,4961,-12578,-51,1029,995,-107,-155,48,131
,158,2016/11/29 07:26:45.91,-3747,4963,-12555,2403,1893,381,-24,-97,73,60
,159,2016/11/29 07:26:45.92,-4064,6955,-14388,5291,2978,-273,-103,-196,93,149
,160,2016/11/29 07:26:45.93,-4090,7746,-16722,7329,3334,-824,-35,-138,103,86
,161,2016/11/29 07:26:45.94,-4566,7515,-17704,8252,3670,-1295,-22,-99,77,60
,162,2016/11/29 07:26:45.95,-4502,6509,-17734,8666,3237,-1585,-54,-91,37,72
,163,2016/11/29 07:26:45.96,-4440,5867,-18031,8659,3062,-1609,53,11,42,-32
,164,2016/11/29 07:26:45.97,-4465,5482,-18200,8184,2536,-1511,-10,-53,43,31
,165,2016/11/29 07:26:45.98,-4158,5092,-17898,7344,2203,-1416,17,-61,78,22
,166,2016/11/29 07:26:45.99,-4238,4469,-17598,6172,1914,-1284,-26,-99,73,62
,167,2016/11/29 07:26:46.00,-3676,3899,-17144,5055,1605,-1208,-109,-175,66,142
,168,2016/11/29 07:26:46.01,-3270,3172,-16391,4106,1343,-1113,-35,-68,33,51
,169,2016/11/29 07:26:46.02,-2968,2673,-15884,3330,1165,-975,-115,-109,-6,112
,170,2016/11/29 07:26:46.03,-3102,2517,-15715,2493,1448,-910,-74,-69,-5,71
,171,2016/11/29 07:26:46.04,-2642,2046,-15116,1853,1311,-808,-73,-84,11,78
,172,2016/11/29 07:26:46.05,-2505,1751,-14989,1234,1432,-729,-124,-142,18,133
,173,2016/11/29 07:26:46.06,-2343,1632,-15050,714,1447,-638,-70,-70,0,70
,174,2016/11/29 07:26:46.07,-2312,1743,-15079,289,1389,-626,-164,-132,-32,148
,175,2016/11/29 07:26:46.08,-2170,1670,-15140,-219,1218,-656,-92,-46,-46,69
,176,2016/11/29 07:26:46.09,-2100,1615,-15349,-877,1139,-690,-61,-24,-37,42
,177,2016/11/29 07:26:46.10,-1933,1473,-15720,-1617,922,-705,-105,-83,-22,94
,178,2016/11/29 07:26:46.11,-1706,1316,-16082,-2318,594,-709,-6,-21,15,13
,179,2016/11/29 07:26:46.12,-1680,1236,-16341,-3158,265,-645,-76,-85,9,80
,180,2016/11/29 07:26:46.13,-1733,1104,-16717,-4091,-66,-593,-32,-20,-12,26
,181,2016/11/29 07:26:46.14,-1598,1105,-16841,-5091,-511,-496,-38,-7,-31,22
,182,2016/11/29 07:26:46.15,-1549,1138,-16994,-6044,-1035,-439,-102,-61,-41,81
,183,2016/11/29 07:26:46.16,-1536,1516,-16794,-6883,-1583,-457,-11,-10,-1,10
,184,2016/11/29 07:26:46.17,-1645,1868,-16207,-7677,-2122,-547,-92,-104,12,98
,185,2016/11/29 07:26:46.18,-1671,1909,-15061,-8207,-2451,-754,-62,-79,17,70
,186,2016/11/29 07:26:46.19,-1842,2246,-14373,-8238,-2571,-937,-63,-59,-4,61
,187,2016/11/29 07:26:46.20,-2184,2725,-14381,-7664,-2492,-992,-149,-124,-25,136
,188,2016/11/29 07:26:46.21,-2693,3362,-14533,-6609,-2283,-929,-106,-67,-39,86
,189,2016/11/29 07:26:46.22,-3015,3838,-14955,-5103,-2038,-765,-209,-181,-28,195
,190,2016/11/29 07:26:46.23,-3388,4588,-15361,-3403,-1885,-502,-184,-174,-10,179
,191,2016/11/29 07:26:46.24,-3662,5322,-15835,-1836,-1647,-296,-152,-130,-22,141
,192,2016/11/29 07:26:46.25,-4150,5648,-16238,-700,-1135,-90,-200,-165,-35,182
,193,2016/11/29 07:26:46.26,-4322,5744,-16511,352,-878,134,-111,-94,-17,102
,194,2016/11/29 07:26:46.27,-4368,5841,-16654,1213,-549,403,-179,-177,-2,178
,195,2016/11/29 07:26:46.28,-4395,5906,-16645,1857,-192,574,-149,-175,26,162
,196,2016/11/29 07:26:46.29,-4301,5766,-16671,2358,180,735,-135,-168,33,151
,197,2016/11/29 07:26:46.30,-4261,5556,-16597,2685,630,894,-171,-192,21,181
,198,2016/11/29 07:26:46.31,-4077,5291,-16531,2965,971,995,-70,-84,14,77
,199,2016/11/29 07:26:46.32,-3775,4951,-16234,3164,1275,1074,-140,-134,-6,137
,200,2016/11/29 07:26:46.33,-3655,4717,-15973,3304,1682,1136,-93,-98,5,95
,201,2016/11/29 07:26:46.34,-3528,4560,-15848,3358,1977,1143,-85,-108,23,96
,202,2016/11/29 07:26:46.35,-3226,4324,-15718,3246,2219,1148,-166,-174,8,170
,203,2016/11/29 07:26:46.36,-3070,4073,-15578,3069,2330,1132,-119,-119,0,119
,204,2016/11/29 07:26:46.37,-2827,3736,-15557,2782,2432,1120,-229,-208,-21,218
,205,2016/11/29 07:26:46.38,-2626,3390,-15727,2433,2448,1135,-237,-178,-59,207
,206,2016/11/29 07:26:46.39,-2442,3191,-15793,1988,2358,1185,-184,-144,-40,164
,207,2016/11/29 07:26:46.40,-2303,2978,-15904,1424,2246,1276,-183,-164,-19,173
,208,2016/11/29 07:26:46.41,-2189,2669,-16062,820,2063,1347,-75,-81,6,78
,209,2016/11/29 07:26:46.42,-2118,2463,-16048,237,1710,1438,-161,-157,-4,159
,210,2016/11/29 07:26:46.43,-2040,2372,-16110,-382,1357,1531,-178,-152,-26,165
,211,2016/11/29 07:26:46.44,-1968,2317,-16268,-1021,973,1611,-186,-149,-37,167
,212,2016/11/29 07:26:46.45,-1841,2102,-16376,-1733,634,1753,-239,-197,-42,218
,213,2016/11/29 07:26:46.46,-1995,1871,-16512,-2378,112,1839,-144,-127,-17,135
,214,2016/11/29 07:26:46.47,-1613,2007,-16624,-2951,-395,1968,-204,-189,-15,196
,215,2016/11/29 07:26:46.48,-1686,1963,-16445,-3602,-996,2077,-146,-147,1,146
,216,2016/11/29 07:26:46.49,-1776,2084,-16400,-4194,-1580,2144,-130,-132,2,131
,217,2016/11/29 07:26:46.50,-1838,2294,-15752,-4653,-2176,2172,-224,-224,0,224
,218,2016/11/29 07:26:46.51,-2090,2661,-15241,-5000,-2447,2122,-159,-175,16,167
,219,2016/11/29 07:26:46.52,-1883,2961,-14630,-4814,-2839,1963,-220,-222,2,221
,220,2016/11/29 07:26:46.53,-2243,3501,-14710,-4337,-2781,1759,-173,-171,-2,172
,221,2016/11/29 07:26:46.54,-2518,3693,-14238,-3532,-2679,1520,-143,-126,-17,134
,222,2016/11/29 07:26:46.55,-2760,4156,-14291,-2233,-2283,1318,-214,-198,-16,206
,223,2016/11/29 07:26:46.56,-2792,4963,-14532,-656,-1857,1122,-112,-107,-5,109
,224,2016/11/29 07:26:46.57,-3263,5656,-15071,807,-1098,866,-164,-164,0,164
,225,2016/11/29 07:26:46.58,-3625,6295,-15667,2098,-421,536,-117,-136,19,126
,226,2016/11/29 07:26:46.59,-3995,6472,-16063,3107,141,229,-109,-142,33,125
,227,2016/11/29 07:26:46.60,-4103,6236,-16225,4049,442,-49,-201,-235,34,218
,228,2016/11/29 07:26:46.61,-4409,6095,-16537,5015,884,-198,-98,-161,63,129
,229,2016/11/29 07:26:46.62,-4343,6066,-17013,6022,1079,-277,-127,-190,63,158
,230,2016/11/29 07:26:46.63,-4249,5970,-17356,6746,1317,-292,-113,-159,46,136
,231,2016/11/29 07:26:46.64,-4078,5600,-17179,7122,1486,-252,-132,-154,22,143
,232,2016/11/29 07:26:46.65,-3949,5244,-17120,7280,1678,-191,-246,-242,-4,244
,233,2016/11/29 07:26:46.66,-3655,4737,-16736,7339,1716,-116,-171,-183,12,177
,234,2016/11/29 07:26:46.67,-3540,4301,-16612,7150,1799,0,-220,-234,14,227
,235,2016/11/29 07:26:46.68,-3337,3916,-16340,6691,1987,120,-167,-183,16,175
,236,2016/11/29 07:26:46.69,-2926,3371,-16077,6130,2077,228,-140,-158,18,149
,237,2016/11/29 07:26:46.70,-2874,2897,-15757,5405,2304,325,-214,-228,14,221
,238,2016/11/29 07:26:46.71,-2468,2401,-15608,4726,2403,420,-122,-138,16,130
,239,2016/11/29 07:26:46.72,-2415,2215,-15757,3902,2477,508,-157,-176,19,166
,240,2016/11/29 07:26:46.73,-2038,1934,-15832,3005,2436,582,-140,-163,23,151
,241,2016/11/29 07:26:46.74,-1979,1689,-15859,2048,2198,641,-123,-152,29,137
,242,2016/11/29 07:26:46.75,-1806,1471,-15920,1128,2028,647,-175,-203,28,189
,243,2016/11/29 07:26:46.76,-1643,1242,-16079,264,1768,647,-80,-94,14,87
,244,2016/11/29 07:26:46.77,-1461,1239,-16305,-508,1403,618,-138,-139,1,138
,245,2016/11/29 07:26:46.78,-1377,1215,-16339,-1256,1022,528,-114,-118,4,116
,246,2016/11/29 07:26:46.79,-1256,1202,-16450,-1954,571,463,-108,-116,8,112
,247,2016/11/29 07:26:46.80,-1159,1361,-16408,-2647,74,338,-186,-184,-2,185
,248,2016/11/29 07:26:46.81,-1026,1500,-16412,-3307,-473,166,-111,-122,11,116
,249,2016/11/29 07:26:46.82,-1127,1877,-16388,-3985,-1020,-102,-190,-188,-2,189
,250,2016/11/29 07:26:46.83,-1322,2108,-16307,-4648,-1522,-416,-167,-173,6,170
,251,2016/11/29 07:26:46.84,-1482,2215,-16122,-5224,-2132,-749,-153,-168,15,160
,252,2016/11/29 07:26:46.85,-1726,2078,-15753,-5610,-2522,-1069,-234,-240,6,237
,253,2016/11/29 07:26:46.86,-1960,2037,-15633,-5571,-2833,-1298,-124,-146,22,135
,254,2016/11/29 07:26:46.87,-2158,2292,-15395,-5142,-3100,-1430,-167,-190,23,178
,255,2016/11/29 07:26:46.88,-2461,2429,-15278,-4576,-3135,-1448,-134,-148,14,141
,256,2016/11/29 07:26:46.89,-2586,2669,-15135,-3938,-2876,-1392,-118,-122,4,120
,257,2016/11/29 07:26:46.90,-2706,3295,-14795,-3031,-2509,-1273,-213,-191,-22,202
,258,2016/11/29 07:26:46.91,-2847,3806,-14731,-1918,-1965,-1196,-131,-111,-20,121
,259,2016/11/29 07:26:46.92,-3100,4237,-15025,-823,-1201,-1102,-188,-169,-19,178
,260,2016/11/29 07:26:46.93,-3426,4433,-15395,178,-488,-1033,-152,-159,7,155
,261,2016/11/29 07:26:46.94,-3655,4332,-15868,1072,118,-915,-136,-155,19,145
,262,2016/11/29 07:26:46.95,-3844,4404,-16365,1871,619,-748,-230,-231,1,230
,263,2016/11/29 07:26:46.96,-3809,4657,-16951,2537,922,-560,-163,-163,0,163
,264,2016/11/29 07:26:46.97,-3849,4794,-17117,2968,1284,-374,-215,-212,-3,213
,265,2016/11/29 07:26:46.98,-3768,4787,-16926,3231,1550,-264,-176,-191,15,183
,266,2016/11/29 07:26:46.99,-3559,4724,-16976,3323,1868,-188,-141,-166,25,153
,267,2016/11/29 07:26:47.00,-3408,4366,-16639,3373,2021,-128,-212,-219,7,215
,268,2016/11/29 07:26:47.01,-3228,4144,-16600,3422,2272,-95,-105,-122,17,113
,269,2016/11/29 07:26:47.02,-2905,3693,-16315,3449,2274,-22,-149,-175,26,162
,270,2016/11/29 07:26:47.03,-2843,3562,-16244,3459,2512,1,-125,-163,38,144
,271,2016/11/29 07:26:47.04,-2567,3287,-16049,3444,2506,50,-130,-157,27,143
,272,2016/11/29 07:26:47.05,-2381,3145,-16005,3288,2485,37,-222,-222,0,222
,273,2016/11/29 07:26:47.06,-2174,2931,-15971,3031,2435,30,-141,-132,-9,136
,274,2016/11/29 07:26:47.07,-2050,2705,-15836,2777,2270,-4,-198,-180,-18,189
,275,2016/11/29 07:26:47.08,-1826,2504,-15894,2440,2214,-47,-167,-156,-11,161
,276,2016/11/29 07:26:47.09,-1694,2311,-16026,2055,2044,-113,-149,-131,-18,140
,277,2016/11/29 07:26:47.10,-1630,2117,-16147,1610,1859,-181,-240,-200,-40,220
,278,2016/11/29 07:26:47.11,-1566,1931,-16304,1140,1664,-249,-199,-142,-57,170
,279,2016/11/29 07:26:47.12,-1393,1730,-16353,624,1318,-320,-264,-204,-60,234
,280,2016/11/29 07:26:47.13,-1436,1576,-16477,86,1013,-376,-246,-202,-44,224
,281,2016/11/29 07:26:47.14,-1310,1394,-16477,-470,662,-406,-200,-178,-22,189
,282,2016/11/29 07:26:47.15,-1314,1392,-16549,-1000,323,-426,-247,-219,-28,233
,283,2016/11/29 07:26:47.16,-1289,1257,-16566,-1564,-114,-422,-138,-118,-20,128
,284,2016/11/29 07:26:47.17,-1309,1222,-16642,-2088,-442,-430,-209,-171,-38,190
,285,2016/11/29 07:26:47.18,-1399,1296,-16690,-2629,-946,-386,-238,-161,-77,199
,286,2016/11/29 07:26:47.19,-1410,1367,-16463,-3192,-1371,-350,-246,-162,-84,204
,287,2016/11/29 07:26:47.20,-1687,1491,-16241,-3702,-1803,-318,-324,-252,-72,288
,288,2016/11/29 07:26:47.21,-1840,1733,-16018,-4093,-2149,-271,-207,-176,-31,191
,289,2016/11/29 07:26:47.22,-1868,1940,-15676,-4312,-2427,-229,-241,-216,-25,228
,290,2016/11/29 07:26:47.23,-2087,2306,-15372,-4275,-2537,-181,-224,-183,-41,203
,291,2016/11/29 07:26:47.24,-2108,2705,-15329,-4042,-2462,-173,-208,-157,-51,182
,292,2016/11/29 07:26:47.25,-2333,2938,-15457,-3737,-2231,-196,-275,-222,-53,248
,293,2016/11/29 07:26:47.26,-2414,3186,-15346,-3278,-1951,-244,-171,-139,-32,155
,294,2016/11/29 07:26:47.27,-2691,3469,-15378,-2634,-1613,-206,-196,-174,-22,185
,295,2016/11/29 07:26:47.28,-2840,3691,-15381,-1862,-1157,-182,-169,-148,-21,158
,296,2016/11/29 07:26:47.29,-2984,4075,-15664,-955,-659,-112,-132,-129,-3,130
,297,2016/11/29 07:26:47.30,-3199,4367,-16037,-39,-204,7,-202,-200,-2,201
,298,2016/11/29 07:26:47.31,-3115,4489,-16352,656,285,102,-150,-137,-13,143
,299,2016/11/29 07:26:47.32,-3231,4465,-16753,1130,676,232,-222,-196,-26,209
,300,2016/11/29 07:26:47.33,-3333,4372,-16977,1453,889,391,-192,-170,-22,181
,301,2016/11/29 07:26:47.34,-3213,4276,-16913,1647,1071,522,-132,-133,1,132
,302,2016/11/29 07:26:47.35,-3026,4084,-16801,1731,1203,692,-182,-179,-3,180
,303,2016/11/29 07:26:47.36,-2884,3991,-16631,1766,1283,820,-86,-106,20,96
,304,2016/11/29 07:26:47.37,-2775,3888,-16446,1775,1344,902,-157,-173,16,165
,305,2016/11/29 07:26:47.38,-2450,3648,-16229,1762,1401,938,-170,-158,-12,164
,306,2016/11/29 07:26:47.39,-2472,3542,-16202,1702,1432,992,-156,-136,-20,146
,307,2016/11/29 07:26:47.40,-2351,3340,-16155,1591,1368,972,-241,-225,-16,233
,308,2016/11/29 07:26:47.41,-2186,3092,-15996,1495,1294,956,-165,-152,-13,158
,309,2016/11/29 07:26:47.42,-2047,2918,-16083,1362,1174,946,-208,-166,-42,187
,310,2016/11/29 07:26:47.43,-1857,2784,-16060,1151,1027,903,-199,-130,-69,164
,311,2016/11/29 07:26:47.44,-1818,2645,-16096,900,901,860,-198,-119,-79,158
,312,2016/11/29 07:26:47.45,-1752,2478,-16245,623,674,808,-299,-212,-87,255
,313,2016/11/29 07:26:47.46,-1680,2209,-16344,9,193,687,-217,-124,-93,170
,314,2016/11/29 07:26:47.47,-1588,2170,-16438,-364,-110,625,-246,-154,-92,200
,315,2016/11/29 07:26:47.48,-1491,2087,-16427,-791,-423,576,-208,-124,-84,166
,316,2016/11/29 07:26:47.49,-1532,2033,-16401,-1215,-731,527,-181,-110,-71,145
,317,2016/11/29 07:26:47.50,-1599,2098,-16408,-1685,-1043,470,-240,-168,-72,204
,318,2016/11/29 07:26:47.51,-1651,2093,-16365,-2120,-1388,384,-155,-97,-58,126
,319,2016/11/29 07:26:47.52,-1645,2228,-16097,-2577,-1644,322,-214,-160,-54,187
,320,2016/11/29 07:26:47.53,-1717,2251,-15960,-2970,-1909,250,-202,-150,-52,176
,321,2016/11/29 07:26:47.54,-1837,2338,-15749,-3212,-2067,165,-168,-140,-28,154
,322,2016/11/29 07:26:47.55,-2006,2439,-15605,-3271,-2170,147,-263,-228,-35,245
,323,2016/11/29 07:26:47.56,-2194,2828,-15489,-3164,-2233,131,-193,-146,-47,169
,324,2016/11/29 07:26:47.57,-2323,3008,-15466,-3023,-2137,105,-238,-178,-60,208
,325,2016/11/29 07:26:47.58,-2481,3232,-15304,-2763,-1993,98,-246,-182,-64,214
,326,2016/11/29 07:26:47.59,-2619,3466,-15159,-2321,-1721,112,-206,-157,-49,181
,327,2016/11/29 07:26:47.60,-2840,3740,-15203,-1619,-1362,156,-270,-211,-59,240
,328,2016/11/29 07:26:47.61,-3023,4092,-15558,-795,-926,176,-199,-126,-73,162
,329,2016/11/29 07:26:47.62,-3182,4409,-15886,-34,-507,233,-246,-166,-80,206
,330,2016/11/29 07:26:47.63,-3219,4515,-16193,609,-189,297,-195,-125,-70,160
,331,2016/11/29 07:26:47.64,-3300,4479,-16412,1004,163,396,-137,-104,-33,120
,332,2016/11/29 07:26:47.65,-3358,4536,-16573,1300,394,512,-215,-193,-22,204
,333,2016/11/29 07:26:47.66,-3322,4427,-16727,1468,536,611,-144,-123,-21,133
,334,2016/11/29 07:26:47.67,-3219,4364,-16695,1600,693,718,-189,-171,-18,180
,335,2016/11/29 07:26:47.68,-3159,4283,-16545,1700,804,791,-139,-138,-1,138
,336,2016/11/29 07:26:47.69,-2931,4100,-16410,1788,922,804,-83,-113,30,98
,337,2016/11/29 07:26:47.70,-2955,4047,-16239,1866,1044,805,-172,-192,20,182
,338,2016/11/29 07:26:47.71,-2752,3927,-16043,1895,1150,788,-132,-115,-17,123
,339,2016/11/29 07:26:47.72,-2632,3744,-15858,1905,1178,737,-215,-168,-47,191
,340,2016/11/29 07:26:47.73,-2624,3628,-15966,1854,1277,696,-204,-141,-63,172
,341,2016/11/29 07:26:47.74,-2459,3343,-15842,1764,1238,673,-149,-121,-28,135
,342,2016/11/29 07:26:47.75,-2351,3215,-15932,1637,1236,645,-241,-230,-11,235
,343,2016/11/29 07:26:47.76,-2259,3084,-15945,1428,1135,640,-148,-157,9,152
,344,2016/11/29 07:26:47.77,-2191,2933,-16002,1169,1036,592,-190,-182,-8,186
,345,2016/11/29 07:26:47.78,-1992,2884,-16061,817,945,487,-198,-163,-35,180
,346,2016/11/29 07:26:47.79,-2043,2737,-16070,478,872,406,-165,-130,-35,147
,347,2016/11/29 07:26:47.80,-1912,2672,-16193,191,709,273,-238,-197,-41,217
,348,2016/11/29 07:26:47.81,-2000,2607,-16254,-109,508,153,-190,-129,-61,159
,349,2016/11/29 07:26:47.82,-1896,2488,-16215,-391,345,8,-247,-176,-71,211
,350,2016/11/29 07:26:47.83,-1994,2446,-16125,-615,217,-93,-220,-161,-59,190
,351,2016/11/29 07:26:47.84,-1940,2468,-16128,-745,45,-175,-185,-135,-50,160
,352,2016/11/29 07:26:47.85,-2056,2491,-16024,-826,-141,-257,-263,-217,-46,240
,353,2016/11/29 07:26:47.86,-2022,2576,-15971,-910,-261,-325,-196,-155,-41,175
,354,2016/11/29 07:26:47.87,-2127,2735,-16000,-990,-338,-405,-245,-202,-43,223
,355,2016/11/29 07:26:47.88,-2103,2774,-15913,-1074,-542,-488,-217,-176,-41,196
,356,2016/11/29 07:26:47.89,-2243,2914,-15919,-1149,-635,-562,-179,-151,-28,165
,357,2016/11/29 07:26:47.90,-2251,3008,-15998,-1227,-749,-613,-287,-237,-50,262
,358,2016/11/29 07:26:47.91,-2415,2976,-15930,-1252,-779,-648,-206,-146,-60,176
,359,2016/11/29 07:26:47.92,-2544,3035,-15991,-1220,-765,-610,-226,-169,-57,197
,360,2016/11/29 07:26:47.93,-2616,3169,-16038,-1175,-776,-541,-215,-150,-65,182
,361,2016/11/29 07:26:47.94,-2592,3288,-16058,-1058,-626,-453,-184,-125,-59,154
,362,2016/11/29 07:26:47.95,-2576,3474,-16083,-948,-546,-370,-255,-198,-57,226
,363,2016/11/29 07:26:47.96,-2700,3625,-16129,-828,-381,-332,-209,-150,-59,179
,364,2016/11/29 07:26:47.97,-2713,3631,-16197,-728,-186,-276,-270,-212,-58,241
,365,2016/11/29 07:26:47.98,-2734,3715,-16283,-605,-39,-236,-251,-191,-60,221
,366,2016/11/29 07:26:47.99,-2774,3739,-16292,-492,96,-189,-201,-137,-64,169
,367,2016/11/29 07:26:48.00,-2782,3744,-16289,-348,194,-158,-265,-201,-64,233
,368,2016/11/29 07:26:48.01,-2680,3798,-16157,-183,268,-150,-169,-134,-35,151
,369,2016/11/29 07:26:48.02,-2675,3755,-16097,-13,366,-181,-219,-183,-36,201
,370,2016/11/29 07:26:48.03,-2547,3705,-16090,112,455,-226,-241,-186,-55,213
,371,2016/11/29 07:26:48.04,-2517,3635,-16110,258,535,-256,-192,-163,-29,177
,372,2016/11/29 07:26:48.05,-2481,3605,-16100,386,538,-306,-274,-240,-34,257
,373,2016/11/29 07:26:48.06,-2369,3490,-16137,449,583,-346,-227,-179,-48,203
,374,2016/11/29 07:26:48.07,-2379,3386,-16120,499,585,-397,-298,-223,-75,260
,375,2016/11/29 07:26:48.08,-2332,3266,-16153,521,498,-446,-284,-190,-94,237
,376,2016/11/29 07:26:48.09,-2201,3268,-16114,488,471,-476,-219,-142,-77,180
,377,2016/11/29 07:26:48.10,-2228,3194,-16116,439,407,-499,-284,-228,-56,256
,378,2016/11/29 07:26:48.11,-2258,3130,-16012,376,320,-533,-200,-171,-29,185
,379,2016/11/29 07:26:48.12,-2212,3105,-16076,315,255,-525,-243,-220,-23,231
,380,2016/11/29 07:26:48.13,-2157,3015,-16025,234,197,-552,-258,-216,-42,237
,381,2016/11/29 07:26:48.14,-2208,3050,-15997,178,146,-583,-212,-165,-47,188
,382,2016/11/29 07:26:48.15,-2252,2995,-16065,94,104,-628,-297,-232,-65,264
,383,2016/11/29 07:26:48.16,-2173,3036,-16072,0,48,-628,-252,-165,-87,208
,384,2016/11/29 07:26:48.17,-2213,2934,-16121,-129,-11,-629,-277,-189,-88,233
,385,2016/11/29 07:26:48.18,-2370,2856,-16124,-234,-96,-592,-285,-205,-80,245
,386,2016/11/29 07:26:48.19,-2268,2830,-16053,-311,-175,-566,-221,-179,-42,200
,387,2016/11/29 07:26:48.20,-2418,2861,-16052,-397,-235,-495,-273,-253,-20,263
,388,2016/11/29 07:26:48.21,-2392,2889,-16020,-454,-299,-416,-196,-182,-14,189
,389,2016/11/29 07:26:48.22,-2355,2927,-16058,-510,-298,-349,-240,-214,-26,227
,390,2016/11/29 07:26:48.23,-2366,2951,-16087,-582,-329,-284,-225,-189,-36,207
,391,2016/11/29 07:26:48.24,-2455,3025,-16077,-630,-286,-193,-181,-152,-29,166
,392,2016/11/29 07:26:48.25,-2471,3052,-16021,-668,-319,-126,-281,-240,-41,260
,393,2016/11/29 07:26:48.26,-2494,3121,-16013,-707,-272,-42,-179,-154,-25,166
,394,2016/11/29 07:26:48.27,-2482,3168,-16164,-779,-266,0,-186,-169,-17,177
,395,2016/11/29 07:26:48.28,-2530,3223,-16077,-808,-216,58,-173,-137,-36,155
,396,2016/11/29 07:26:48.29,-2560,3253,-16067,-819,-184,129,-117,-98,-19,107
,397,2016/11/29 07:26:48.30,-2442,3309,-16103,-790,-149,159,-210,-193,-17,201
,398,2016/11/29 07:26:48.31,-2545,3358,-16096,-761,-111,209,-159,-152,-7,155
,399,2016/11/29 07:26:48.32,-2469,3440,-16143,-756,-62,234,-203,-198,-5,200
,400,2016/11/29 07:26:48.33,-2508,3427,-16145,-780,-47,267,-183,-181,-2,182
,401,2016/11/29 07:26:48.34,-2566,3359,-16159,-783,-40,305,-166,-148,-18,157
,402,2016/11/29 07:26:48.35,-2507,3324,-16134,-812,-36,360,-293,-241,-52,267
,403,2016/11/29 07:26:48.36,-2474,3354,-16111,-758,-34,418,-236,-189,-47,212
,404,2016/11/29 07:26:48.37,-2356,3354,-16014,-704,-19,470,-265,-216,-49,240
,405,2016/11/29 07:26:48.38,-2480,3359,-16034,-634,34,507,-244,-185,-59,214
,406,2016/11/29 07:26:48.39,-2386,3426,-15957,-554,29,530,-167,-132,-35,149
,407,2016/11/29 07:26:48.40,-2482,3446,-15956,-502,54,540,-259,-220,-39,239
,408,2016/11/29 07:26:48.41,-2390,3476,-15938,-492,83,543,-191,-165,-26,178
,409,2016/11/29 07:26:48.42,-2389,3490,-15956,-502,67,548,-227,-191,-36,209
,410,2016/11/29 07:26:48.43,-2397,3456,-16008,-573,48,557,-223,-174,-49,198
,411,2016/11/29 07:26:48.44,-2384,3428,-15987,-617,49,554,-160,-131,-29,145
,412,2016/11/29 07:26:48.45,-2284,3462,-16004,-650,30,559,-233,-212,-21,222
,413,2016/11/29 07:26:48.46,-2260,3506,-15994,-663,18,545,-173,-160,-13,166
,414,2016/11/29 07:26:48.47,-2362,3592,-16041,-653,12,518,-234,-204,-30,219
,415,2016/11/29 07:26:48.48,-2316,3546,-16047,-656,-37,486,-242,-189,-53,215
,416,2016/11/29 07:26:48.49,-2429,3586,-16141,-652,-95,467,-179,-132,-47,155
,417,2016/11/29 07:26:48.50,-2435,3554,-16084,-661,-162,447,-259,-197,-62,228
,418,2016/11/29 07:26:48.51,-2463,3561,-15987,-669,-219,457,-199,-146,-53,172
,419,2016/11/29 07:26:48.52,-2487,3562,-15940,-664,-245,466,-246,-198,-48,222
,420,2016/11/29 07:26:48.53,-2468,3530,-15878,-645,-216,449,-248,-188,-60,218
,421,2016/11/29 07:26:48.54,-2535,3578,-15836,-595,-176,453,-180,-135,-45,157
,422,2016/11/29 07:26:48.55,-2443,3674,-15958,-553,-151,427,-253,-209,-44,231
,423,2016/11/29 07:26:48.56,-2488,3743,-15888,-526,-75,403,-179,-138,-41,158
,424,2016/11/29 07:26:48.57,-2534,3747,-15912,-538,-15,362,-214,-160,-54,187
,425,2016/11/29 07:26:48.58,-2448,3784,-15910,-548,51,331,-230,-147,-83,188
,426,2016/11/29 07:26:48.59,-2483,3770,-16012,-547,93,292,-198,-112,-86,155
,427,2016/11/29 07:26:48.60,-2474,3671,-16043,-534,113,263,-309,-219,-90,264
,428,2016/11/29 07:26:48.61,-2528,3743,-16014,-486,128,242,-239,-195,-44,217
,429,2016/11/29 07:26:48.62,-2530,3771,-16063,-463,116,218,-261,-235,-26,248
,430,2016/11/29 07:26:48.63,-2421,3756,-16014,-436,93,223,-250,-224,-26,237
,431,2016/11/29 07:26:48.64,-2483,3730,-16046,-421,58,228,-183,-154,-29,168
,432,2016/11/29 07:26:48.65,-2522,3745,-15955,-408,25,222,-271,-209,-62,240
,433,2016/11/29 07:26:48.66,-2454,3773,-15870,-391,23,241,-186,-137,-49,161
,434,2016/11/29 07:26:48.67,-2381,3797,-15872,-411,39,247,-200,-172,-28,186
,435,2016/11/29 07:26:48.68,-2405,3795,-15921,-414,87,223,-236,-214,-22,225
,436,2016/11/29 07:26:48.69,-2420,3843,-15924,-416,54,214,-198,-182,-16,190
,437,2016/11/29 07:26:48.70,-2475,3839,-15976,-410,64,176,-278,-247,-31,262
,438,2016/11/29 07:26:48.71,-2379,3849,-16005,-370,78,149,-188,-160,-28,174
,439,2016/11/29 07:26:48.72,-2407,3854,-15912,-333,69,87,-206,-172,-34,189
,440,2016/11/29 07:26:48.73,-2450,3896,-15982,-286,79,41,-211,-168,-43,189
,441,2016/11/29 07:26:48.74,-2467,3918,-15942,-262,56,-5,-153,-128,-25,140
,442,2016/11/29 07:26:48.75,-2381,3929,-16039,-274,17,-35,-232,-206,-26,219
,443,2016/11/29 07:26:48.76,-2461,3966,-16040,-268,-69,-94,-196,-171,-25,183
,444,2016/11/29 07:26:48.77,-2443,3932,-16093,-253,-134,-165,-260,-222,-38,241
,445,2016/11/29 07:26:48.78,-2305,3950,-15950,-208,-184,-224,-321,-264,-57,292
,446,2016/11/29 07:26:48.79,-2337,3977,-15972,-144,-182,-306,-245,-206,-39,225
,447,2016/11/29 07:26:48.80,-2415,3910,-15967,-71,-184,-407,-271,-258,-13,264
,448,2016/11/29 07:26:48.81,-2368,3874,-15933,1,-164,-448,-187,-211,24,199
,449,2016/11/29 07:26:48.82,-2370,3766,-15937,38,-143,-496,-231,-252,21,241
,450,2016/11/29 07:26:48.83,-2425,3835,-15936,79,-135,-527,-252,-249,-3,250
,451,2016/11/29 07:26:48.84,-2458,3838,-16007,99,-157,-528,-178,-152,-26,165
,452,2016/11/29 07:26:48.85,-2386,3827,-16028,82,-191,-531,-233,-174,-59,203
,453,2016/11/29 07:26:48.86,-2461,3745,-16003,55,-197,-526,-179,-135,-44,157
,454,2016/11/29 07:26:48.87,-2496,3805,-15987,17,-257,-484,-231,-201,-30,216
,455,2016/11/29 07:26:48.88,-2461,3738,-16057,-2,-290,-449,-228,-210,-18,219
,456,2016/11/29 07:26:48.89,-2487,3747,-16005,12,-331,-429,-150,-146,-4,148
,457,2016/11/29 07:26:48.90,-2479,3717,-15955,27,-322,-416,-237,-207,-30,222
,458,2016/11/29 07:26:48.91,-2464,3722,-15909,40,-313,-392,-181,-149,-32,165
,459,2016/11/29 07:26:48.92,-2522,3733,-15935,35,-302,-368,-210,-180,-30,195
,460,2016/11/29 07:26:48.93,-2538,3772,-15910,45,-261,-357,-186,-161,-25,173
,461,2016/11/29 07:26:48.94,-2543,3781,-15886,62,-246,-360,-101,-93,-8,97
,462,2016/11/29 07:26:48.95,-2545,3804,-15917,55,-272,-353,-174,-167,-7,170
,463,2016/11/29 07:26:48.96,-2608,3819,-15946,25,-273,-360,-140,-126,-14,133
,464,2016/11/29 07:26:48.97,-2609,3865,-15998,-4,-282,-381,-196,-175,-21,185
,465,2016/11/29 07:26:48.98,-2572,3898,-15889,-27,-307,-445,-208,-181,-27,194
,466,2016/11/29 07:26:48.99,-2552,3849,-15993,-70,-307,-479,-142,-115,-27,128
,467,2016/11/29 07:26:49.00,-2665,3801,-15927,-125,-260,-515,-224,-171,-53,197
,468,2016/11/29 07:26:49.01,-2654,3711,-15993,-111,-268,-538,-149,-114,-35,131
,469,2016/11/29 07:26:49.02,-2656,3646,-15909,-55,-273,-530,-180,-164,-16,172
,470,2016/11/29 07:26:49.03,-2568,3629,-15979,23,-277,-530,-181,-163,-18,172
,471,2016/11/29 07:26:49.04,-2632,3759,-15864,17,-233,-519,-121,-114,-7,117
,472,2016/11/29 07:26:49.05,-2677,3769,-16022,-11,-196,-502,-228,-198,-30,213
,473,2016/11/29 07:26:49.06,-2588,3762,-15894,0,-209,-511,-155,-121,-34,138
,474,2016/11/29 07:26:49.07,-2580,3743,-15872,15,-187,-537,-174,-141,-33,157
,475,2016/11/29 07:26:49.08,-2562,3740,-15921,-5,-113,-557,-155,-119,-36,137
,476,2016/11/29 07:26:49.09,-2632,3793,-15894,-34,-73,-579,-84,-62,-22,73
,477,2016/11/29 07:26:49.10,-2732,3736,-15939,-53,-47,-600,-194,-158,-36,176
,478,2016/11/29 07:26:49.11,-2673,3730,-15923,-33,10,-610,-158,-121,-37,139
,479,2016/11/29 07:26:49.12,-2792,3721,-15919,-41,12,-583,-196,-167,-29,181
,480,2016/11/29 07:26:49.13,-2718,3685,-15978,-62,33,-549,-200,-172,-28,186
,481,2016/11/29 07:26:49.14,-2692,3641,-15937,-24,40,-514,-140,-117,-23,128
,482,2016/11/29 07:26:49.15,-2716,3762,-15894,7,24,-486,-235,-187,-48,211
,483,2016/11/29 07:26:49.16,-2675,3695,-15842,-27,66,-450,-154,-111,-43,132
,484,2016/11/29 07:26:49.17,-2715,3697,-15858,-28,85,-420,-180,-146,-34,163
,485,2016/11/29 07:26:49.18,-2706,3706,-15824,-12,90,-406,-219,-183,-36,201
,486,2016/11/29 07:26:49.19,-2747,3737,-15915,-44,126,-393,-155,-136,-19,145
,487,2016/11/29 07:26:49.20,-2735,3672,-15950,-121,127,-380,-221,-202,-19,211
,488,2016/11/29 07:26:49.21,-2753,3609,-15941,-143,126,-369,-123,-115,-8,119
,489,2016/11/29 07:26:49.22,-2721,3634,-15976,-183,104,-323,-148,-127,-21,137
,490,2016/11/29 07:26:49.23,-2754,3647,-16015,-220,92,-279,-167,-137,-30,152
,491,2016/11/29 07:26:49.24,-2735,3607,-15997,-238,41,-246,-101,-96,-5,98
,492,2016/11/29 07:26:49.25,-2735,3618,-15991,-248,5,-206,-192,-190,-2,191
,493,2016/11/29 07:26:49.26,-2713,3721,-15991,-259,-20,-178,-154,-149,-5,151
,494,2016/11/29 07:26:49.27,-2696,3688,-15843,-275,-38,-135,-193,-185,-8,189
,495,2016/11/29 07:26:49.28,-2755,3672,-15863,-273,-27,-97,-208,-195,-13,201
,496,2016/11/29 07:26:49.29,-2744,3674,-15946,-270,-8,-97,-150,-133,-17,141
,497,2016/11/29 07:26:49.30,-2797,3559,-15878,-248,45,-55,-232,-198,-34,215
,498,2016/11/29 07:26:49.31,-2755,3615,-15885,-174,57,-11,-121,-105,-16,113
,499,2016/11/29 07:26:49.32,-2712,3698,-15928,-149,60,6,-130,-114,-16,122
,500,2016/11/29 07:26:49.33,-2705,3787,-15854,-158,134,40,-176,-137,-39,156
,501,2016/11/29 07:26:49.34,-2721,3823,-15962,-153,152,29,-136,-106,-30,121
,502,2016/11/29 07:26:49.35,-2788,3799,-16023,-123,143,26,-223,-189,-34,206
,503,2016/11/29 07:26:49.36,-2783,3757,-16099,-155,155,39,-125,-122,-3,123
,504,2016/11/29 07:26:49.37,-2816,3699,-16149,-140,109,20,-139,-153,14,146
,505,2016/11/29 07:26:49.38,-2734,3728,-16078,-140,68,60,-166,-153,-13,159
,506,2016/11/29 07:26:49.39,-2733,3691,-16017,-155,18,67,-117,-69,-48,93
,507,2016/11/29 07:26:49.40,-2776,3648,-15975,-181,31,120,-222,-149,-73,185
,508,2016/11/29 07:26:49.41,-2655,3674,-15940,-216,-21,138,-173,-115,-58,144
,509,2016/11/29 07:26:49.42,-2677,3626,-15980,-234,-6,193,-191,-159,-32,175
,510,2016/11/29 07:26:49.43,-2696,3538,-15957,-293,-9,273,-202,-177,-25,189
,511,2016/11/29 07:26:49.44,-2658,3563,-15993,-365,-30,349,-147,-117,-30,132
,512,2016/11/29 07:26:49.45,-2704,3584,-15882,-435,-62,406,-243,-202,-41,222
,513,2016/11/29 07:26:49.46,-2685,3508,-15977,-547,-80,462,-165,-148,-17,156
,514,2016/11/29 07:26:49.47,-2684,3541,-15900,-675,-97,567,-178,-160,-18,169
,515,2016/11/29 07:26:49.48,-2689,3578,-15873,-794,-76,669,-203,-168,-35,185
,516,2016/11/29 07:26:49.49,-2713,3565,-15865,-921,-89,750,-155,-128,-27,141
,517,2016/11/29 07:26:49.50,-2714,3508,-15884,-1015,-56,847,-254,-224,-30,239
,518,2016/11/29 07:26:49.51,-2657,3563,-15962,-1087,-48,942,-150,-152,2,151
,519,2016/11/29 07:26:49.52,-2702,3587,-16033,-1193,-85,1066,-153,-157,4,155
,520,2016/11/29 07:26:49.53,-2631,3559,-16077,-1295,-89,1226,-186,-161,-25,173
,521,2016/11/29 07:26:49.54,-2716,3562,-15994,-1459,-145,1381,-136,-107,-29,121
,522,2016/11/29 07:26:49.55,-2762,3555,-16046,-1615,-229,1573,-232,-204,-28,218
,523,2016/11/29 07:26:49.56,-2716,3520,-16054,-1815,-230,1785,-152,-143,-9,147
,524,2016/11/29 07:26:49.57,-2604,3476,-15976,-1971,-300,2007,-167,-165,-2,166
,525,2016/11/29 07:26:49.58,-2635,3478,-15987,-2074,-300,2245,-217,-202,-15,209
,526,2016/11/29 07:26:49.59,-2624,3533,-15950,-2125,-353,2491,-148,-146,-2,147
,527,2016/11/29 07:26:49.60,-2538,3545,-16075,-2174,-340,2720,-208,-200,-8,204
,528,2016/11/29 07:26:49.61,-2609,3527,-15890,-2221,-490,2975,-103,-111,8,107
,529,2016/11/29 07:26:49.62,-2594,3534,-15853,-2253,-548,3271,-119,-120,1,119
,530,2016/11/29 07:26:49.63,-2403,3526,-15853,-2270,-701,3589,-176,-157,-19,166
,531,2016/11/29 07:26:49.64,-2520,3718,-16005,-2362,-839,3937,-149,-140,-9,144
,532,2016/11/29 07:26:49.65,-2582,3668,-15907,-2617,-857,4298,-252,-239,-13,245
,533,2016/11/29 07:26:49.66,-2619,3651,-15940,-2816,-1014,4681,-170,-164,-6,167
,534,2016/11/29 07:26:49.67,-2456,3621,-15833,-3030,-1134,5116,-170,-161,-9,165
,535,2016/11/29 07:26:49.68,-2402,3707,-15761,-3196,-1152,5511,-169,-157,-12,163
,536,2016/11/29 07:26:49.69,-2270,3929,-15353,-3108,-1320,5862,-104,-106,2,105
,537,2016/11/29 07:26:49.70,-2268,4321,-15215,-2965,-1255,6084,-222,-218,-4,220
,538,2016/11/29 07:26:49.71,-2127,4708,-15204,-2744,-1322,6203,-188,-172,-16,180
,539,2016/11/29 07:26:49.72,-2556,4910,-15380,-2797,-1024,6244,-204,-194,-10,199
,540,2016/11/29 07:26:49.73,-2446,4915,-15450,-2792,-980,6272,-244,-239,-5,241
,541,2016/11/29 07:26:49.74,-2455,4821,-15445,-2807,-986,6381,-179,-165,-14,172
,542,2016/11/29 07:26:49.75,-2628,5019,-15533,-2866,-803,6485,-232,-208,-24,220
,543,2016/11/29 07:26:49.76,-2249,5063,-15496,-2888,-928,6570,-114,-113,-1,113
,544,2016/11/29 07:26:49.77,-2280,5209,-15354,-2799,-926,6632,-100,-124,24,112
,545,2016/11/29 07:26:49.78,-2314,5401,-15266,-2639,-743,6635,-122,-160,38,141
,546,2016/11/29 07:26:49.79,-2188,5647,-15300,-2424,-785,6575,-97,-110,13,103
,547,2016/11/29 07:26:49.80,-2298,5941,-15481,-2370,-535,6440,-205,-186,-19,195
,548,2016/11/29 07:26:49.81,-2165,5957,-15461,-2301,-713,6286,-150,-142,-8,146
,549,2016/11/29 07:26:49.82,-2078,6162,-15527,-2319,-549,6131,-146,-158,12,152
,550,2016/11/29 07:26:49.83,-2343,6011,-15573,-2486,-575,6001,-132,-158,26,145
,551,2016/11/29 07:26:49.84,-2027,6017,-15507,-2458,-812,5903,-67,-105,38,86
,552,2016/11/29 07:26:49.85,-2202,5964,-15445,-2490,-684,5868,-177,-200,23,188
,553,2016/11/29 07:26:49.86,-2012,5957,-15322,-2375,-993,5752,-120,-136,16,128
,554,2016/11/29 07:26:49.87,-2164,6187,-15425,-2311,-785,5677,-140,-156,16,148
,555,2016/11/29 07:26:49.88,-1621,6223,-15196,-2070,-1124,5530,-185,-206,21,195
,556,2016/11/29 07:26:49.89,-2031,6397,-15272,-2047,-942,5427,-110,-135,25,122
,557,2016/11/29 07:26:49.90,-1937,6481,-15291,-1990,-1019,5230,-174,-188,14,181
,558,2016/11/29 07:26:49.91,-1900,6519,-15241,-1995,-1040,5076,-94,-119,25,106
,559,2016/11/29 07:26:49.92,-1807,6646,-15186,-1953,-1091,4880,-107,-128,21,117
,560,2016/11/29 07:26:49.93,-1962,6530,-15095,-2004,-1075,4693,-138,-162,24,150
,561,2016/11/29 07:26:49.94,-1924,6763,-15132,-1910,-1047,4488,-69,-112,43,90
,562,2016/11/29 07:26:49.95,-1826,6883,-15065,-1808,-1102,4281,-142,-182,40,162
,563,2016/11/29 07:26:49.96,-1830,7006,-15075,-1762,-1042,4025,-56,-107,51,81
,564,2016/11/29 07:26:49.97,-1819,7094,-15031,-1681,-995,3753,-95,-124,29,109
,565,2016/11/29 07:26:49.98,-1780,7172,-14998,-1542,-1010,3463,-160,-164,4,162
,566,2016/11/29 07:26:49.99,-1897,7299,-15122,-1513,-862,3187,-70,-101,31,85
,567,2016/11/29 07:26:50.00,-1826,7206,-14904,-1416,-1006,2882,-111,-157,46,134
,568,2016/11/29 07:26:50.01,-1941,7331,-15010,-1378,-769,2624,-47,-110,63,78
,569,2016/11/29 07:26:50.02,-1832,7347,-15021,-1262,-889,2309,-124,-155,31,139
,570,2016/11/29 07:26:50.03,-1986,7312,-15012,-1195,-781,2076,-213,-205,-8,209
,571,2016/11/29 07:26:50.04,-1964,7303,-15012,-1110,-791,1810,-189,-175,-14,182
,572,2016/11/29 07:26:50.05,-1869,7371,-14931,-1013,-751,1577,-275,-262,-13,268
,573,2016/11/29 07:26:50.06,-1931,7349,-14896,-976,-637,1339,-152,-147,-5,149
,574,2016/11/29 07:26:50.07,-1893,7329,-14845,-902,-603,1134,-118,-122,4,120
,575,2016/11/29 07:26:50.08,-1906,7354,-14856,-829,-505,946,-167,-179,12,173
,576,2016/11/29 07:26:50.09,-1892,7324,-14900,-783,-440,755,-152,-145,-7,148
,577,2016/11/29 07:26:50.10,-1997,7279,-14933,-727,-383,595,-239,-228,-11,233
,578,2016/11/29 07:26:50.11,-1922,7279,-14968,-690,-367,455,-135,-151,16,143
,579,2016/11/29 07:26:50.12,-1959,7228,-14977,-669,-381,328,-110,-128,18,119
,580,2016/11/29 07:26:50.13,-1991,7188,-14977,-631,-360,204,-158,-171,13,164
,581,2016/11/29 07:26:50.14,-1895,7148,-14996,-605,-388,106,-137,-150,13,143
,582,2016/11/29 07:26:50.15,-1896,7073,-14986,-558,-376,18,-252,-251,-1,251
,583,2016/11/29 07:26:50.16,-1945,7042,-14851,-493,-377,-35,-209,-200,-9,204
,584,2016/11/29 07:26:50.17,-1956,6954,-14845,-426,-342,-53,-200,-181,-19,190
,585,2016/11/29 07:26:50.18,-1984,6991,-14844,-394,-301,-46,-185,-165,-20,175
,586,2016/11/29 07:26:50.19,-1957,7014,-14809,-378,-270,-53,-63,-82,19,72
,587,2016/11/29 07:26:50.20,-1983,6965,-14893,-369,-223,-29,-148,-181,33,164
,588,2016/11/29 07:26:50.21,-2091,6944,-14855,-348,-185,-29,-141,-159,18,150
,589,2016/11/29 07:26:50.22,-1918,6935,-14877,-353,-164,-8,-167,-182,15,174
,590,2016/11/29 07:26:50.23,-2010,6993,-14847,-366,-157,-7,-156,-198,42,177
,591,2016/11/29 07:26:50.24,-2002,6939,-14855,-412,-152,7,-74,-130,56,102
,592,2016/11/29 07:26:50.25,-1978,7016,-14864,-451,-137,19,-157,-199,42,178
,593,2016/11/29 07:26:50.26,-2068,7018,-14825,-486,-152,52,-109,-160,51,134
,594,2016/11/29 07:26:50.27,-2006,6974,-14886,-488,-136,55,-134,-183,49,158
,595,2016/11/29 07:26:50.28,-2002,7075,-14844,-475,-144,10,-186,-243,57,214
,596,2016/11/29 07:26:50.29,-1997,7110,-14815,-470,-114,5,-123,-172,49,147
,597,2016/11/29 07:26:50.30,-1976,7158,-14850,-464,-80,-6,-192,-223,31,207
,598,2016/11/29 07:26:50.31,-1950,7177,-14812,-466,-50,-39,-98,-131,33,114
,599,2016/11/29 07:26:50.32,-2016,7226,-14845,-471,-19,-69,-101,-144,43,122
,600,2016/11/29 07:26:50.33,-1975,7249,-14867,-490,-10,-87,-152,-205,53,178
,601,2016/11/29 07:26:50.34,-1938,7246,-14848,-485,20,-109,-102,-164,62,133
,602,2016/11/29 07:26:50.35,-2017,7201,-14867,-487,-10,-140,-205,-252,47,228
,603,2016/11/29 07:26:50.36,-2089,7238,-14840,-511,3,-174,-141,-196,55,168
,604,2016/11/29 07:26:50.37,-1915,7231,-14800,-476,18,-224,-138,-185,47,161
,605,2016/11/29 07:26:50.38,-2032,7191,-14789,-468,34,-254,-195,-234,39,214
,606,2016/11/29 07:26:50.39,-1877,7209,-14773,-448,53,-305,-147,-176,29,161
,607,2016/11/29 07:26:50.40,-2057,7135,-14844,-454,67,-346,-248,-251,3,249
,608,2016/11/29 07:26:50.41,-1968,7186,-14890,-455,49,-394,-196,-183,-13,189
,609,2016/11/29 07:26:50.42,-2043,7095,-14843,-394,26,-419,-193,-178,-15,185
,610,2016/11/29 07:26:50.43,-2023,7174,-14882,-329,3,-436,-210,-215,5,212
,611,2016/11/29 07:26:50.44,-2152,7170,-14894,-325,-8,-454,-108,-154,46,131
,612,2016/11/29 07:26:50.45,-2123,7077,-14948,-315,2,-459,-175,-228,53,201
,613,2016/11/29 07:26:50.46,-2081,7093,-14892,-309,-24,-476,-116,-168,52,142
,614,2016/11/29 07:26:50.47,-2114,7045,-14885,-289,-19,-486,-144,-180,36,162
,615,2016/11/29 07:26:50.48,-2054,6983,-14777,-312,-7,-462,-204,-228,24,216
,616,2016/11/29 07:26:50.49,-2063,7084,-14787,-326,32,-462,-163,-175,12,169
,617,2016/11/29 07:26:50.50,-2095,7047,-14778,-353,46,-438,-246,-260,14,253
,618,2016/11/29 07:26:50.51,-2137,7018,-14810,-364,129,-407,-148,-181,33,164
,619,2016/11/29 07:26:50.52,-2021,7076,-14847,-352,172,-407,-124,-156,32,140
,620,2016/11/29 07:26:50.53,-2018,7107,-14855,-344,218,-405,-165,-192,27,178
,621,2016/11/29 07:26:50.54,-2166,7055,-14805,-323,229,-351,-137,-140,3,138
,622,2016/11/29 07:26:50.55,-2065,7058,-14885,-340,243,-325,-230,-223,-7,226
,623,2016/11/29 07:26:50.56,-2041,7102,-14834,-344,226,-300,-166,-183,17,174
,624,2016/11/29 07:26:50.57,-2032,7140,-14785,-355,221,-260,-162,-195,33,178
,625,2016/11/29 07:26:50.58,-2168,7090,-14861,-385,234,-218,-197,-238,41,217
,626,2016/11/29 07:26:50.59,-2127,7092,-14818,-404,236,-197,-112,-149,37,130
,627,2016/11/29 07:26:50.60,-2039,7181,-14827,-389,225,-162,-181,-196,15,188
,628,2016/11/29 07:26:50.61,-2046,7190,-14856,-424,227,-161,-132,-138,6,135
,629,2016/11/29 07:26:50.62,-1969,7148,-14787,-464,221,-142,-172,-160,-12,166
,630,2016/11/29 07:26:50.63,-2105,7178,-14830,-492,240,-129,-234,-219,-15,226
,631,2016/11/29 07:26:50.64,-2042,7188,-14861,-514,214,-109,-186,-180,-6,183
,632,2016/11/29 07:26:50.65,-2083,7146,-14853,-537,200,-84,-277,-266,-11,271
,633,2016/11/29 07:26:50.66,-2025,7109,-14883,-538,172,-27,-236,-220,-16,228
,634,2016/11/29 07:26:50.67,-2017,7140,-14871,-529,180,-19,-235,-211,-24,223
,635,2016/11/29 07:26:50.68,-2051,7175,-14819,-551,149,18,-250,-221,-29,235
,636,2016/11/29 07:26:50.69,-2061,7183,-14833,-587,109,38,-116,-126,10,121
,637,2016/11/29 07:26:50.70,-2060,7143,-14857,-586,69,68,-175,-205,30,190
,638,2016/11/29 07:26:50.71,-2036,7180,-14859,-562,15,83,-156,-172,16,164
,639,2016/11/29 07:26:50.72,-2010,7262,-14745,-576,-33,133,-184,-182,-2,183
,640,2016/11/29 07:26:50.73,-2008,7238,-14765,-610,-24,143,-222,-218,-4,220
,641,2016/11/29 07:26:50.74,-2035,7229,-14827,-596,-41,159,-158,-156,-2,157
,642,2016/11/29 07:26:50.75,-1934,7270,-14864,-604,-47,160,-254,-244,-10,249
,643,2016/11/29 07:26:50.76,-2001,7249,-14867,-601,-40,179,-183,-179,-4,181
,644,2016/11/29 07:26:50.77,-2041,7267,-14820,-543,-95,173,-134,-139,5,136
,645,2016/11/29 07:26:50.78,-2078,7297,-14888,-512,-139,200,-147,-156,9,151
,646,2016/11/29 07:26:50.79,-2107,7365,-14835,-497,-164,192,-108,-114,6,111
,647,2016/11/29 07:26:50.80,-2026,7356,-14788,-473,-213,204,-233,-222,-11,227
,648,2016/11/29 07:26:50.81,-2065,7379,-14784,-470,-257,217,-214,-197,-17,205
,649,2016/11/29 07:26:50.82,-2060,7367,-14702,-472,-262,212,-218,-188,-30,203
,650,2016/11/29 07:26:50.83,-1986,7328,-14689,-454,-251,220,-230,-200,-30,215
,651,2016/11/29 07:26:50.84,-2066,7341,-14732,-452,-235,252,-130,-120,-10,125
,652,2016/11/29 07:26:50.85,-2024,7297,-14772,-431,-229,275,-204,-200,-4,202
,653,2016/11/29 07:26:50.86,-2115,7314,-14742,-425,-205,316,-149,-160,11,154
,654,2016/11/29 07:26:50.87,-2094,7439,-14690,-421,-220,346,-179,-174,-5,176
,655,2016/11/29 07:26:50.88,-2074,7405,-14685,-413,-189,371,-251,-213,-38,232
,656,2016/11/29 07:26:50.89,-2124,7472,-14657,-398,-180,388,-167,-114,-53,140
,657,2016/11/29 07:26:50.90,-2058,7484,-14629,-409,-168,368,-215,-176,-39,195
,658,2016/11/29 07:26:50.91,-2130,7466,-14609,-383,-122,372,-192,-169,-23,180
,659,2016/11/29 07:26:50.92,-1972,7519,-14598,-399,-93,360,-215,-194,-21,204
,660,2016/11/29 07:26:50.93,-2056,7545,-14618,-406,-64,332,-261,-236,-25,248
,661,2016/11/29 07:26:50.94,-2097,7496,-14625,-385,-39,316,-192,-159,-33,175
,662,2016/11/29 07:26:50.95,-2080,7562,-14642,-379,-15,326,-267,-230,-37,248
,663,2016/11/29 07:26:50.96,-2063,7559,-14671,-360,32,295,-227,-189,-38,208
,664,2016/11/29 07:26:50.97,-2040,7537,-14660,-344,29,279,-205,-174,-31,189
,665,2016/11/29 07:26:50.98,-2091,7511,-14615,-325,59,265,-227,-207,-20,217
,666,2016/11/29 07:26:50.99,-2101,7557,-14613,-301,106,243,-161,-133,-28,147
,667,2016/11/29 07:26:51.00,-2107,7580,-14662,-289,78,242,-243,-203,-40,223
,668,2016/11/29 07:26:51.01,-2070,7606,-14688,-257,84,206,-199,-162,-37,180
,669,2016/11/29 07:26:51.02,-2111,7563,-14656,-260,65,200,-207,-163,-44,185
,670,2016/11/29 07:26:51.03,-2083,7567,-14658,-275,114,190,-240,-198,-42,219
,671,2016/11/29 07:26:51.04,-2061,7528,-14642,-277,103,181,-157,-116,-41,136
,672,2016/11/29 07:26:51.05,-2003,7534,-14614,-281,110,171,-224,-184,-40,204
,673,2016/11/29 07:26:51.06,-2012,7525,-14644,-264,103,178,-187,-147,-40,167
,674,2016/11/29 07:26:51.07,-2055,7556,-14700,-251,120,149,-201,-165,-36,183
,675,2016/11/29 07:26:51.08,-2023,7532,-14644,-237,103,149,-260,-224,-36,242
,676,2016/11/29 07:26:51.09,-1945,7566,-14666,-223,88,126,-204,-163,-41,183
,677,2016/11/29 07:26:51.10,-2119,7570,-14695,-239,62,114,-256,-226,-30,241
,678,2016/11/29 07:26:51.11,-1941,7485,-14672,-237,35,99,-196,-190,-6,193
,679,2016/11/29 07:26:51.12,-2047,7520,-14676,-254,44,93,-192,-175,-17,183
,680,2016/11/29 07:26:51.13,-2017,7541,-14717,-295,22,94,-231,-201,-30,216
,681,2016/11/29 07:26:51.14,-2019,7461,-14748,-322,-17,84,-162,-127,-35,144
,682,2016/11/29 07:26:51.15,-2085,7432,-14626,-315,-53,83,-235,-204,-31,219
,683,2016/11/29 07:26:51.16,-2011,7458,-14617,-306,-62,109,-222,-191,-31,206
,684,2016/11/29 07:26:51.17,-2081,7469,-14580,-345,-45,95,-237,-202,-35,219
,685,2016/11/29 07:26:51.18,-2061,7530,-14635,-348,-50,92,-277,-244,-33,260
,686,2016/11/29 07:26:51.19,-1969,7559,-14619,-346,-51,75,-182,-147,-35,164
,687,2016/11/29 07:26:51.20,-2043,7597,-14633,-337,-72,57,-230,-184,-46,207
,688,2016/11/29 07:26:51.21,-2032,7652,-14575,-370,-67,28,-176,-141,-35,158
,689,2016/11/29 07:26:51.22,-1963,7668,-14591,-452,-64,9,-179,-159,-20,169
,690,2016/11/29 07:26:51.23,-2040,7718,-14611,-472,-59,-21,-234,-214,-20,224
,691,2016/11/29 07:26:51.24,-2032,7656,-14676,-474,-98,-31,-183,-161,-22,172
,692,2016/11/29 07:26:51.25,-1998,7612,-14719,-465,-103,-60,-268,-240,-28,254
,693,2016/11/29 07:26:51.26,-1969,7630,-14643,-443,-99,-65,-253,-212,-41,232
,694,2016/11/29 07:26:51.27,-2038,7626,-14632,-414,-131,-81,-250,-206,-44,228
,695,2016/11/29 07:26:51.28,-2092,7605,-14608,-384,-147,-87,-285,-252,-33,268
,696,2016/11/29 07:26:51.29,-2039,7575,-14603,-361,-146,-92,-196,-174,-22,185
,697,2016/11/29 07:26:51.30,-1986,7541,-14524,-328,-160,-63,-248,-233,-15,240
,698,2016/11/29 07:26:51.31,-2095,7530,-14620,-309,-144,-52,-205,-204,-1,204
,699,2016/11/29 07:26:51.32,-1993,7640,-14565,-283,-124,-27,-194,-194,0,194
,700,2016/11/29 07:26:51.33,-2103,7652,-14584,-269,-115,-10,-231,-222,-9,226
,701,2016/11/29 07:26:51.34,-2124,7613,-14563,-255,-94,26,-155,-138,-17,146
,702,2016/11/29 07:26:51.35,-2052,7663,-14582,-235,-78,51,-220,-194,-26,207
,703,2016/11/29 07:26:51.36,-2084,7653,-14581,-216,-79,59,-180,-158,-22,169
,704,2016/11/29 07:26:51.37,-2076,7605,-14599,-182,-49,84,-186,-158,-28,172
,705,2016/11/29 07:26:51.38,-2141,7642,-14622,-221,-42,93,-252,-215,-37,233
,706,2016/11/29 07:26:51.39,-2100,7680,-14579,-194,-70,116,-178,-143,-35,160
,707,2016/11/29 07:26:51.40,-2190,7730,-14534,-151,-45,106,-236,-210,-26,223
,708,2016/11/29 07:26:51.41,-2082,7685,-14620,-124,-68,93,-209,-209,0,209
,709,2016/11/29 07:26:51.42,-2058,7718,-14577,-103,-86,74,-217,-210,-7,213
,710,2016/11/29 07:26:51.43,-2077,7678,-14572,-79,-95,51,-265,-236,-29,250
,711,2016/11/29 07:26:51.44,-2083,7668,-14486,-17,-127,43,-193,-152,-41,172
,712,2016/11/29 07:26:51.45,-2182,7722,-14434,-3,-107,54,-259,-213,-46,236
,713,2016/11/29 07:26:51.46,-2067,7727,-14568,12,-59,28,-205,-158,-47,181
,714,2016/11/29 07:26:51.47,-2105,7716,-14597,57,-61,-20,-191,-147,-44,169
,715,2016/11/29 07:26:51.48,-2138,7655,-14584,65,-7,-56,-244,-200,-44,222
,716,2016/11/29 07:26:51.49,-2081,7531,-14524,74,45,-58,-160,-128,-32,144
,717,2016/11/29 07:26:51.50,-2062,7536,-14641,123,95,-55,-221,-190,-31,205
,718,2016/11/29 07:26:51.51,-2019,7465,-14638,168,118,-54,-192,-156,-36,174
,719,2016/11/29 07:26:51.52,-2082,7329,-14594,209,102,-55,-200,-156,-44,178
,720,2016/11/29 07:26:51.53,-2022,7319,-14625,256,179,-46,-274,-224,-50,249
,721,2016/11/29 07:26:51.54,-2079,7204,-14651,317,129,-50,-198,-152,-46,175
,722,2016/11/29 07:26:51.55,-1949,7213,-14618,368,224,-29,-238,-199,-39,218
,723,2016/11/29 07:26:51.56,-1980,7050,-14483,360,251,-12,-196,-176,-20,186
,724,2016/11/29 07:26:51.57,-1884,7054,-14521,459,215,-23,-188,-177,-11,182
,725,2016/11/29 07:26:51.58,-1982,7054,-14594,438,273,-10,-229,-211,-18,220
,726,2016/11/29 07:26:51.59,-1884,7080,-14623,371,293,-40,-148,-124,-24,136
,727,2016/11/29 07:26:51.60,-1903,7079,-14640,220,326,-26,-222,-192,-30,207
,728,2016/11/29 07:26:51.61,-1929,7261,-14730,10,449,-14,-220,-177,-43,198
,729,2016/11/29 07:26:51.62,-1919,7193,-14640,-183,328,11,-206,-168,-38,187
,730,2016/11/29 07:26:51.63,-1903,7218,-14638,-383,391,19,-235,-206,-29,220
,731,2016/11/29 07:26:51.64,-1979,7247,-14571,-556,367,79,-154,-121,-33,137
,732,2016/11/29 07:26:51.65,-1989,7224,-14595,-673,349,135,-216,-181,-35,198
,733,2016/11/29 07:26:51.66,-1998,7250,-14586,-751,356,180,-173,-146,-27,159
,734,2016/11/29 07:26:51.67,-1999,7348,-14574,-904,330,200,-185,-149,-36,167
,735,2016/11/29 07:26:51.68,-2001,7328,-14595,-1023,352,237,-272,-226,-46,249
,736,2016/11/29 07:26:51.69,-1987,7372,-14690,-1098,360,262,-179,-148,-31,163
,737,2016/11/29 07:26:51.70,-1916,7432,-14718,-1174,298,272,-189,-180,-9,184
,738,2016/11/29 07:26:51.71,-1968,7442,-14726,-1236,299,287,-104,-121,17,112
,739,2016/11/29 07:26:51.72,-2049,7411,-14729,-1265,275,307,-93,-116,23,104
,740,2016/11/29 07:26:51.73,-1930,7515,-14726,-1232,232,311,-181,-185,4,183
,741,2016/11/29 07:26:51.74,-2135,7607,-14737,-1199,199,341,-112,-114,2,113
,742,2016/11/29 07:26:51.75,-1994,7722,-14623,-1142,111,299,-195,-183,-12,189
,743,2016/11/29 07:26:51.76,-1980,7892,-14595,-1121,91,283,-173,-154,-19,163
,744,2016/11/29 07:26:51.77,-1955,8039,-14538,-1139,87,193,-133,-141,8,137
,745,2016/11/29 07:26:51.78,-1968,8189,-14527,-1153,80,86,-151,-174,23,162
,746,2016/11/29 07:26:51.79,-1963,8252,-14526,-1172,25,-29,-71,-90,19,80
,747,2016/11/29 07:26:51.80,-1980,8300,-14482,-1208,24,-145,-165,-168,3,166
,748,2016/11/29 07:26:51.81,-2061,8285,-14542,-1192,-35,-249,-147,-152,5,149
,749,2016/11/29 07:26:51.82,-2003,8299,-14545,-1118,-140,-360,-154,-140,-14,147
,750,2016/11/29 07:26:51.83,-2041,8276,-14448,-1028,-158,-400,-238,-205,-33,221
,751,2016/11/29 07:26:51.84,-2084,8244,-14478,-933,-168,-441,-199,-147,-52,173
,752,2016/11/29 07:26:51.85,-2120,8209,-14467,-824,-185,-446,-245,-201,-44,223
,753,2016/11/29 07:26:51.86,-2102,8212,-14452,-714,-190,-446,-169,-170,1,169
,754,2016/11/29 07:26:51.87,-2107,8319,-14399,-631,-177,-434,-150,-162,12,156
,755,2016/11/29 07:26:51.88,-2248,8350,-14450,-588,-164,-421,-210,-205,-5,207
,756,2016/11/29 07:26:51.89,-2142,8327,-14315,-553,-194,-393,-103,-111,8,107
,757,2016/11/29 07:26:51.90,-2170,8400,-14254,-557,-159,-328,-184,-172,-12,178
,758,2016/11/29 07:26:51.91,-2302,8299,-14341,-561,-161,-254,-170,-146,-24,158
,759,2016/11/29 07:26:51.92,-2194,8376,-14268,-559,-173,-191,-155,-142,-13,148
,760,2016/11/29 07:26:51.93,-2327,8328,-14270,-513,-158,-120,-213,-200,-13,206
,761,2016/11/29 07:26:51.94,-2303,8492,-14238,-514,-53,-64,-106,-114,8,110
,762,2016/11/29 07:26:51.95,-2113,8509,-14218,-499,-56,16,-162,-169,7,165
,763,2016/11/29 07:26:51.96,-2255,8641,-14417,-613,188,68,-136,-135,-1,135
,764,2016/11/29 07:26:51.97,-2246,8169,-14069,-506,102,123,-164,-140,-24,152
,765,2016/11/29 07:26:51.98,-2157,8514,-14458,-243,-65,204,-265,-227,-38,246
,766,2016/11/29 07:26:51.99,-2227,8522,-14152,-242,151,258,-194,-164,-30,179
,767,2016/11/29 07:26:52.00,-2194,8320,-14221,-162,121,268,-244,-228,-16,236
,768,2016/11/29 07:26:52.01,-2141,8584,-14322,4,17,327,-192,-197,5,194
,769,2016/11/29 07:26:52.02,-2075,8618,-14201,19,216,303,-152,-181,29,166
,770,2016/11/29 07:26:52.03,-2083,8492,-14319,33,248,289,-228,-244,16,236
,771,2016/11/29 07:26:52.04,-1928,8613,-14333,115,175,290,-161,-168,7,164
,772,2016/11/29 07:26:52.05,-1956,8561,-14340,83,423,268,-225,-213,-12,219
,773,2016/11/29 07:26:52.06,-1969,8458,-14337,90,316,210,-148,-145,-3,146
,774,2016/11/29 07:26:52.07,-1894,8407,-14345,201,305,252,-102,-122,20,112
,775,2016/11/29 07:26:52.08,-1994,8285,-14375,267,262,274,-177,-182,5,179
,776,2016/11/29 07:26:52.09,-1991,8199,-14345,320,180,335,-161,-136,-25,148
,777,2016/11/29 07:26:52.10,-2127,8199,-14419,401,58,445,-269,-228,-41,248
,778,2016/11/29 07:26:52.11,-2055,8185,-14321,516,-104,559,-245,-202,-43,223
,779,2016/11/29 07:26:52.12,-2105,8099,-14344,598,-109,710,-180,-157,-23,168
,780,2016/11/29 07:26:52.13,-2023,8017,-14348,680,-189,843,-190,-172,-18,181
,781,2016/11/29 07:26:52.14,-1970,8030,-14262,738,-162,981,-94,-82,-12,88
,782,2016/11/29 07:26:52.15,-2025,7990,-14284,789,-99,1057,-177,-166,-11,171
,783,2016/11/29 07:26:52.16,-1824,7956,-14351,866,-69,1134,-178,-177,-1,177
,784,2016/11/29 07:26:52.17,-1734,7919,-14376,886,72,1197,-189,-188,-1,188
,785,2016/11/29 07:26:52.18,-1866,7837,-14537,906,128,1245,-274,-261,-13,267
,786,2016/11/29 07:26:52.19,-1794,7832,-14585,956,118,1286,-188,-167,-21,177
,787,2016/11/29 07:26:52.20,-1809,7747,-14603,1026,67,1348,-214,-191,-23,202
,788,2016/11/29 07:26:52.21,-1853,7676,-14621,1075,64,1386,-136,-141,5,138
,789,2016/11/29 07:26:52.22,-1749,7608,-14637,1103,42,1448,-130,-137,7,133
,790,2016/11/29 07:26:52.23,-1775,7530,-14631,1192,33,1489,-244,-232,-12,238
,791,2016/11/29 07:26:52.24,-1824,7568,-14654,1206,52,1502,-180,-169,-11,174
,792,2016/11/29 07:26:52.25,-1751,7463,-14655,1253,69,1516,-239,-227,-12,233
,793,2016/11/29 07:26:52.26,-1581,7400,-14627,1304,65,1487,-197,-184,-13,190
,794,2016/11/29 07:26:52.27,-1582,7351,-14614,1310,108,1468,-189,-176,-13,182
,795,2016/11/29 07:26:52.28,-1500,7369,-14488,1316,117,1430,-285,-276,-9,280
,796,2016/11/29 07:26:52.29,-1516,7314,-14437,1388,153,1388,-217,-196,-21,206
,797,2016/11/29 07:26:52.30,-1548,7361,-14491,1416,163,1323,-260,-234,-26,247
,798,2016/11/29 07:26:52.31,-1513,7340,-14602,1414,189,1249,-223,-208,-15,215
,799,2016/11/29 07:26:52.32,-1551,7355,-14587,1413,164,1129,-201,-200,-1,200
,800,2016/11/29 07:26:52.33,-1495,7409,-14683,1382,158,1007,-284,-290,6,287
,801,2016/11/29 07:26:52.34,-1513,7416,-14683,1278,171,863,-208,-236,28,222
,802,2016/11/29 07:26:52.35,-1543,7527,-14754,1176,135,716,-265,-288,23,276
,803,2016/11/29 07:26:52.36,-1544,7489,-14748,1074,83,559,-200,-218,18,209
,804,2016/11/29 07:26:52.37,-1511,7508,-14669,981,34,388,-155,-178,23,166
,805,2016/11/29 07:26:52.38,-1597,7424,-14697,927,-104,257,-234,-245,11,239
,806,2016/11/29 07:26:52.39,-1519,7472,-14706,861,-152,108,-181,-187,6,184
,807,2016/11/29 07:26:52.40,-1485,7416,-14641,787,-176,-44,-266,-264,-2,265
,808,2016/11/29 07:26:52.41,-1530,7364,-14710,707,-193,-131,-237,-235,-2,236
,809,2016/11/29 07:26:52.42,-1505,7302,-14713,635,-177,-225,-204,-187,-17,195
,810,2016/11/29 07:26:52.43,-1494,7169,-14706,578,-217,-291,-276,-249,-27,262
,811,2016/11/29 07:26:52.44,-1688,7202,-14784,459,-5,-328,-160,-146,-14,153
,812,2016/11/29 07:26:52.45,-1835,7209,-14773,409,-109,-347,-213,-207,-6,210
,813,2016/11/29 07:26:52.46,-1561,7271,-14739,385,-233,-355,-201,-201,0,201
,814,2016/11/29 07:26:52.47,-1761,7299,-14829,218,57,-349,-216,-202,-14,209
,815,2016/11/29 07:26:52.48,-1718,7397,-14791,144,-114,-367,-310,-284,-26,297
,816,2016/11/29 07:26:52.49,-1700,7348,-14707,27,-38,-339,-231,-211,-20,221
,817,2016/11/29 07:26:52.50,-1830,7440,-14743,-19,-113,-331,-268,-259,-9,263
,818,2016/11/29 07:26:52.51,-1748,7417,-14794,-79,-68,-318,-198,-210,12,204
,819,2016/11/29 07:26:52.52,-1787,7423,-14842,-81,-141,-331,-189,-183,-6,186
,820,2016/11/29 07:26:52.53,-1773,7399,-14819,-33,-251,-314,-290,-261,-29,275
,821,2016/11/29 07:26:52.54,-1769,7426,-14715,13,-158,-321,-200,-183,-17,191
,822,2016/11/29 07:26:52.55,-1738,7404,-14763,65,-178,-378,-244,-239,-5,241
,823,2016/11/29 07:26:52.56,-1731,7416,-14753,107,-116,-406,-206,-207,1,206
,824,2016/11/29 07:26:52.57,-1776,7356,-14805,182,-155,-470,-184,-180,-4,182
,825,2016/11/29 07:26:52.58,-1804,7282,-14837,196,-76,-507,-261,-255,-6,258
,826,2016/11/29 07:26:52.59,-1806,7302,-14793,222,-160,-541,-173,-189,16,181
,827,2016/11/29 07:26:52.60,-1791,7358,-14789,213,-134,-594,-241,-249,8,245
,828,2016/11/29 07:26:52.61,-1768,7299,-14719,119,-70,-625,-216,-207,-9,211
,829,2016/11/29 07:26:52.62,-1822,7273,-14702,33,-41,-675,-198,-180,-18,189
,830,2016/11/29 07:26:52.63,-1863,7184,-14782,-56,-31,-712,-272,-252,-20,262
,831,2016/11/29 07:26:52.64,-1859,7180,-14812,-134,-37,-751,-180,-187,7,183
,832,2016/11/29 07:26:52.65,-1832,7173,-14756,-221,-29,-743,-235,-245,10,240
,833,2016/11/29 07:26:52.66,-1896,7102,-14799,-283,-33,-741,-186,-194,8,190
,834,2016/11/29 07:26:52.67,-1852,7022,-14805,-345,-40,-705,-133,-128,-5,130
,835,2016/11/29 07:26:52.68,-1889,6973,-14818,-415,-61,-677,-219,-186,-33,202
,836,2016/11/29 07:26:52.69,-1954,6898,-14801,-508,-106,-588,-176,-128,-48,152
,837,2016/11/29 07:26:52.70,-1881,6897,-14852,-602,-126,-507,-250,-206,-44,228
,838,2016/11/29 07:26:52.71,-1882,6851,-14837,-695,-149,-415,-236,-199,-37,217
,839,2016/11/29 07:26:52.72,-1857,6954,-14796,-817,-151,-329,-228,-195,-33,211
,840,2016/11/29 07:26:52.73,-1861,6938,-14714,-925,-187,-206,-315,-279,-36,297
,841,2016/11/29 07:26:52.74,-1959,7013,-14665,-1003,-160,-117,-248,-195,-53,221
,842,2016/11/29 07:26:52.75,-1834,7050,-14698,-1048,-162,-29,-294,-234,-60,264
,843,2016/11/29 07:26:52.76,-1907,7165,-14634,-1075,-142,38,-258,-195,-63,226
,844,2016/11/29 07:26:52.77,-2028,7318,-14712,-1143,-126,81,-224,-176,-48,200
,845,2016/11/29 07:26:52.78,-1897,7325,-14681,-1178,-175,109,-297,-263,-34,280
,846,2016/11/29 07:26:52.79,-1894,7428,-14651,-1185,-177,109,-247,-212,-35,229
,847,2016/11/29 07:26:52.80,-2044,7470,-14692,-1224,-183,86,-315,-278,-37,296
,848,2016/11/29 07:26:52.81,-1969,7520,-14632,-1250,-203,92,-248,-215,-33,231
,849,2016/11/29 07:26:52.82,-1957,7555,-14720,-1320,-205,71,-185,-158,-27,171
,850,2016/11/29 07:26:52.83,-2034,7545,-14721,-1388,-233,79,-247,-211,-36,229
,851,2016/11/29 07:26:52.84,-1964,7577,-14655,-1404,-228,48,-179,-143,-36,161
,852,2016/11/29 07:26:52.85,-2006,7524,-14608,-1397,-234,77,-252,-217,-35,234
,853,2016/11/29 07:26:52.86,-2053,7497,-14695,-1399,-239,103,-234,-191,-43,212
,854,2016/11/29 07:26:52.87,-2093,7427,-14583,-1328,-227,155,-194,-154,-40,174
,855,2016/11/29 07:26:52.88,-1971,7517,-14532,-1227,-264,214,-256,-213,-43,234
,856,2016/11/29 07:26:52.89,-1970,7648,-14451,-1186,-269,285,-192,-152,-40,172
,857,2016/11/29 07:26:52.90,-2010,7738,-14453,-1147,-180,320,-265,-227,-38,246
,858,2016/11/29 07:26:52.91,-2036,7747,-14470,-1100,-167,369,-243,-205,-38,224
,859,2016/11/29 07:26:52.92,-2055,7776,-14559,-1098,-123,416,-212,-172,-40,192
,860,2016/11/29 07:26:52.93,-2097,7718,-14533,-1066,-81,463,-283,-240,-43,261
,861,2016/11/29 07:26:52.94,-2067,7824,-14535,-1039,-119,523,-219,-166,-53,192
,862,2016/11/29 07:26:52.95,-2055,7813,-14520,-994,-82,578,-283,-228,-55,255
,863,2016/11/29 07:26:52.96,-2060,7893,-14454,-963,-55,618,-252,-201,-51,226
,864,2016/11/29 07:26:52.97,-2080,7919,-14526,-899,-19,624,-231,-179,-52,205
,865,2016/11/29 07:26:52.98,-2094,8003,-14508,-869,-29,629,-310,-254,-56,282
,866,2016/11/29 07:26:52.99,-1973,8027,-14457,-776,-30,630,-212,-168,-44,190
,867,2016/11/29 07:26:53.00,-1967,8094,-14376,-678,-1,619,-248,-212,-36,230
,868,2016/11/29 07:26:53.01,-2033,8132,-14369,-613,61,580,-241,-198,-43,219
,869,2016/11/29 07:26:53.02,-1942,8193,-14443,-560,108,547,-200,-173,-27,186
,870,2016/11/29 07:26:53.03,-1889,8152,-14375,-517,185,503,-264,-234,-30,249
,871,2016/11/29 07:26:53.04,-2032,8233,-14379,-510,213,435,-185,-155,-30,170
,872,2016/11/29 07:26:53.05,-2020,8252,-14368,-518,269,354,-254,-214,-40,234
,873,2016/11/29 07:26:53.06,-1968,8317,-14360,-530,312,277,-239,-187,-52,213
,874,2016/11/29 07:26:53.07,-1988,8346,-14340,-501,317,198,-224,-164,-60,194
,875,2016/11/29 07:26:53.08,-1958,8363,-14304,-491,324,82,-290,-237,-53,263
,876,2016/11/29 07:26:53.09,-1937,8323,-14344,-444,355,4,-190,-162,-28,176
,877,2016/11/29 07:26:53.10,-1926,8367,-14309,-389,348,-110,-238,-214,-24,226
,878,2016/11/29 07:26:53.11,-1813,8363,-14383,-308,335,-209,-209,-184,-25,196
,879,2016/11/29 07:26:53.12,-1802,8350,-14418,-249,346,-347,-194,-155,-39,174
,880,2016/11/29 07:26:53.13,-1750,8297,-14374,-184,340,-428,-279,-227,-52,253
,881,2016/11/29 07:26:53.14,-1743,8241,-14362,-168,325,-531,-181,-134,-47,157
,882,2016/11/29 07:26:53.15,-1771,8123,-14389,-119,320,-590,-224,-192,-32,208
,883,2016/11/29 07:26:53.16,-1806,8152,-14421,-90,291,-598,-201,-180,-21,190
,884,2016/11/29 07:26:53.17,-1753,8033,-14340,-83,289,-600,-161,-159,-2,160
,885,2016/11/29 07:26:53.18,-1770,8013,-14433,-87,271,-550,-238,-233,-5,235
,886,2016/11/29 07:26:53.19,-1859,8018,-14469,-81,252,-521,-133,-150,17,141
,887,2016/11/29 07:26:53.20,-1861,7998,-14480,-80,173,-511,-183,-202,19,192
,888,2016/11/29 07:26:53.21,-1763,7961,-14495,-95,146,-476,-184,-196,12,190
,889,2016/11/29 07:26:53.22,-1730,7973,-14552,-102,60,-449,-182,-189,7,185
,890,2016/11/29 07:26:53.23,-1732,7982,-14569,-78,-8,-446,-314,-302,-12,308
,891,2016/11/29 07:26:53.24,-1740,7904,-14504,-56,-85,-412,-262,-256,-6,259
,892,2016/11/29 07:26:53.25,-1814,7929,-14608,-41,-183,-393,-309,-290,-19,299
,893,2016/11/29 07:26:53.26,-1845,7891,-14515,-13,-258,-368,-298,-250,-48,274
,894,2016/11/29 07:26:53.27,-1881,7925,-14564,-10,-346,-361,-246,-203,-43,224
,895,2016/11/29 07:26:53.28,-1885,7857,-14545,18,-383,-333,-299,-268,-31,283
,896,2016/11/29 07:26:53.29,-1853,7854,-14537,42,-430,-302,-203,-213,10,208
,897,2016/11/29 07:26:53.30,-1848,7928,-14476,73,-452,-266,-236,-255,19,245
,898,2016/11/29 07:26:53.31,-1946,7931,-14395,87,-468,-239,-233,-241,8,237
,899,2016/11/29 07:26:53.32,-1855,8010,-14462,54,-410,-220,-206,-197,-9,201
,900,2016/11/29 07:26:53.33,-2037,8026,-14368,-1,-393,-227,-288,-256,-32,272
,901,2016/11/29 07:26:53.34,-2025,8087,-14337,13,-330,-226,-193,-145,-48,169
,902,2016/11/29 07:26:53.35,-2090,8103,-14353,-34,-275,-227,-220,-178,-42,199
,903,2016/11/29 07:26:53.36,-1940,8038,-14239,-52,-295,-236,-193,-171,-22,182
,904,2016/11/29 07:26:53.37,-1985,8127,-14386,-85,-139,-196,-153,-152,-1,152
,905,2016/11/29 07:26:53.38,-2025,8134,-14334,-135,-118,-235,-258,-244,-14,251
,906,2016/11/29 07:26:53.39,-2070,8038,-14370,-160,-57,-217,-194,-173,-21,183
,907,2016/11/29 07:26:53.40,-2044,8009,-14309,-125,-57,-222,-228,-218,-10,223
,908,2016/11/29 07:26:53.41,-2042,7962,-14325,-131,-48,-230,-209,-215,6,212
,909,2016/11/29 07:26:53.42,-2072,7991,-14345,-89,34,-190,-156,-168,12,162
,910,2016/11/29 07:26:53.43,-1977,8021,-14363,-99,43,-228,-224,-216,-8,220
,911,2016/11/29 07:26:53.44,-2083,7954,-14391,-111,61,-189,-152,-130,-22,141
,912,2016/11/29 07:26:53.45,-2082,7992,-14434,-102,108,-204,-209,-192,-17,200
,913,2016/11/29 07:26:53.46,-2016,8037,-14400,-110,50,-197,-192,-191,-1,191
,914,2016/11/29 07:26:53.47,-2014,8040,-14356,-127,74,-210,-145,-157,12,151
,915,2016/11/29 07:26:53.48,-1948,7978,-14366,-133,63,-214,-232,-232,0,232
,916,2016/11/29 07:26:53.49,-1972,8034,-14424,-161,91,-193,-164,-152,-12,158
,917,2016/11/29 07:26:53.50,-1991,8010,-14411,-141,54,-202,-231,-202,-29,216
,918,2016/11/29 07:26:53.51,-2018,7929,-14410,-148,38,-163,-227,-194,-33,210
,919,2016/11/29 07:26:53.52,-2028,7919,-14424,-121,15,-130,-159,-160,1,159
,920,2016/11/29 07:26:53.53,-1970,7916,-14507,-109,-11,-110,-232,-239,7,235
,921,2016/11/29 07:26:53.54,-1971,7905,-14426,-90,-35,-47,-167,-179,12,173
,922,2016/11/29 07:26:53.55,-1924,7882,-14429,-65,-89,-22,-234,-235,1,234
,923,2016/11/29 07:26:53.56,-2083,7922,-14450,-69,-51,39,-233,-225,-8,229
,924,2016/11/29 07:26:53.57,-1959,7930,-14403,-77,-102,75,-211,-182,-29,196
,925,2016/11/29 07:26:53.58,-1998,7917,-14397,-70,-111,118,-295,-244,-51,269
,926,2016/11/29 07:26:53.59,-2115,7929,-14361,-43,-127,154,-203,-151,-52,177
,927,2016/11/29 07:26:53.60,-2044,7964,-14379,-27,-123,186,-220,-192,-28,206
,928,2016/11/29 07:26:53.61,-2090,7935,-14375,12,-105,215,-191,-172,-19,181
,929,2016/11/29 07:26:53.62,-2043,8003,-14457,17,-116,256,-145,-146,1,145
,930,2016/11/29 07:26:53.63,-2101,8019,-14481,40,-66,289,-239,-240,1,239
,931,2016/11/29 07:26:53.64,-2100,7957,-14438,59,-135,314,-173,-163,-10,168
,932,2016/11/29 07:26:53.65,-2054,8081,-14464,98,-85,357,-233,-213,-20,223
,933,2016/11/29 07:26:53.66,-2109,8064,-14440,119,-122,353,-225,-202,-23,213
,934,2016/11/29 07:26:53.67,-2002,8127,-14451,138,-88,350,-193,-161,-32,177
,935,2016/11/29 07:26:53.68,-2052,8012,-14479,151,-106,365,-283,-247,-36,265
,936,2016/11/29 07:26:53.69,-2109,8052,-14494,154,-115,355,-200,-160,-40,180
,937,2016/11/29 07:26:53.70,-2083,7981,-14429,162,-156,393,-229,-196,-33,212
,938,2016/11/29 07:26:53.71,-2075,7941,-14395,161,-139,390,-234,-218,-16,226
,939,2016/11/29 07:26:53.72,-2102,7919,-14387,146,-112,428,-198,-186,-12,192
,940,2016/11/29 07:26:53.73,-2087,7896,-14432,135,-143,438,-274,-251,-23,262
,941,2016/11/29 07:26:53.74,-1984,7842,-14402,130,-136,458,-167,-160,-7,163
,942,2016/11/29 07:26:53.75,-1931,7869,-14359,85,-143,483,-199,-194,-5,196
,943,2016/11/29 07:26:53.76,-2119,7842,-14360,34,-105,506,-197,-190,-7,193
,944,2016/11/29 07:26:53.77,-2080,7749,-14358,44,-110,516,-160,-169,9,164
,945,2016/11/29 07:26:53.78,-2055,7773,-14362,10,-105,538,-249,-254,5,251
,946,2016/11/29 07:26:53.79,-1933,7861,-14390,8,-76,571,-171,-163,-8,167
,947,2016/11/29 07:26:53.80,-1981,7816,-14513,20,-33,588,-212,-199,-13,205
,948,2016/11/29 07:26:53.81,-1924,7940,-14484,48,-39,576,-184,-179,-5,181
,949,2016/11/29 07:26:53.82,-1890,7871,-14443,82,-9,593,-148,-150,2,149
,950,2016/11/29 07:26:53.83,-1920,7864,-14447,121,-13,583,-258,-257,-1,257
,951,2016/11/29 07:26:53.84,-1971,7878,-14460,136,6,578,-185,-194,9,189
,952,2016/11/29 07:26:53.85,-1918,7974,-14458,182,7,579,-246,-244,-2,245
,953,2016/11/29 07:26:53.86,-1976,7888,-14513,187,-2,574,-268,-249,-19,258
,954,2016/11/29 07:26:53.87,-1923,7848,-14518,191,-8,556,-203,-191,-12,197
,955,2016/11/29 07:26:53.88,-2024,7848,-14519,199,-3,546,-251,-244,-7,247
,956,2016/11/29 07:26:53.89,-2030,7865,-14518,186,11,541,-148,-135,-13,141
,957,2016/11/29 07:26:53.90,-1886,7886,-14483,172,1,532,-195,-181,-14,188
,958,2016/11/29 07:26:53.91,-1968,7744,-14481,133,33,529,-200,-197,-3,198
,959,2016/11/29 07:26:53.92,-1904,7772,-14514,147,47,527,-170,-174,4,172
,960,2016/11/29 07:26:53.93,-2023,7741,-14456,150,39,516,-270,-268,-2,269
,961,2016/11/29 07:26:53.94,-1954,7768,-14459,126,30,503,-204,-194,-10,199
,962,2016/11/29 07:26:53.95,-1972,7764,-14453,101,22,517,-227,-223,-4,225
,963,2016/11/29 07:26:53.96,-1980,7765,-14408,65,49,520,-203,-212,9,207
,964,2016/11/29 07:26:53.97,-1922,7766,-14455,45,26,496,-192,-183,-9,187
,965,2016/11/29 07:26:53.98,-1938,7798,-14458,8,72,479,-297,-271,-26,284
,966,2016/11/29 07:26:53.99,-1810,7839,-14395,-17,95,444,-207,-178,-29,192
,967,2016/11/29 07:26:54.00,-1874,7888,-14405,-18,116,404,-227,-207,-20,217
,968,2016/11/29 07:26:54.01,-1947,7921,-14481,-43,171,341,-218,-213,-5,215
,969,2016/11/29 07:26:54.02,-1957,7905,-14498,-50,158,286,-163,-164,1,163
,970,2016/11/29 07:26:54.03,-2051,7942,-14394,-44,140,257,-248,-253,5,250
,971,2016/11/29 07:26:54.04,-1913,7973,-14418,-39,107,196,-136,-166,30,151
,972,2016/11/29 07:26:54.05,-1906,7998,-14477,-109,122,151,-182,-202,20,192
,973,2016/11/29 07:26:54.06,-1824,8001,-14458,-151,132,63,-205,-207,2,206
,974,2016/11/29 07:26:54.07,-1831,7954,-14428,-185,134,-6,-148,-164,16,156
,975,2016/11/29 07:26:54.08,-1868,7954,-14373,-139,126,-91,-233,-259,26,246
,976,2016/11/29 07:26:54.09,-1795,8002,-14423,-125,162,-181,-151,-184,33,167
,977,2016/11/29 07:26:54.10,-1918,7964,-14511,-109,206,-255,-192,-208,16,200
,978,2016/11/29 07:26:54.11,-1819,7917,-14502,-148,229,-302,-193,-190,-3,191
,979,2016/11/29 07:26:54.12,-1774,7936,-14515,-156,220,-307,-163,-142,-21,152
,980,2016/11/29 07:26:54.13,-1889,7862,-14512,-174,263,-325,-248,-216,-32,232
,981,2016/11/29 07:26:54.14,-1920,7807,-14526,-182,260,-332,-170,-159,-11,164
,982,2016/11/29 07:26:54.15,-1820,7805,-14492,-167,250,-330,-217,-220,3,218
,983,2016/11/29 07:26:54.16,-1818,7803,-14368,-152,264,-345,-245,-244,-1,244
,984,2016/11/29 07:26:54.17,-1827,7890,-14330,-154,300,-359,-222,-199,-23,210
,985,2016/11/29 07:26:54.18,-1873,7840,-14394,-118,321,-387,-308,-274,-34,291
,986,2016/11/29 07:26:54.19,-1798,7868,-14381,-78,346,-390,-208,-170,-38,189
,987,2016/11/29 07:26:54.20,-1872,7885,-14505,-15,357,-391,-204,-186,-18,195
,988,2016/11/29 07:26:54.21,-1854,7853,-14517,41,322,-387,-156,-164,8,160
,989,2016/11/29 07:26:54.22,-1900,7863,-14520,109,330,-381,-124,-121,-3,122
,990,2016/11/29 07:26:54.23,-1945,7852,-14577,117,315,-375,-243,-219,-24,231
,991,2016/11/29 07:26:54.24,-1915,7867,-14590,110,305,-367,-190,-167,-23,178
,992,2016/11/29 07:26:54.25,-1912,7899,-14570,102,307,-355,-253,-221,-32,237
,993,2016/11/29 07:26:54.26,-1895,7872,-14521,104,298,-358,-275,-226,-49,250
,994,2016/11/29 07:26:54.27,-1853,7879,-14521,115,307,-393,-178,-147,-31,162
,995,2016/11/29 07:26:54.28,-1833,7884,-14485,136,294,-402,-232,-214,-18,223
,996,2016/11/29 07:26:54.29,-1876,7892,-14517,165,293,-397,-147,-153,6,150
,997,2016/11/29 07:26:54.30,-1876,7920,-14542,199,256,-436,-198,-204,6,201
,998,2016/11/29 07:26:54.31,-1929,7933,-14491,275,257,-476,-230,-228,-2,229
,999,2016/11/29 07:26:54.32,-1901,7981,-14459,352,222,-482,-174,-194,20,184
,1000,2016/11/29 07:26:54.33,-1864,8042,-14461,389,254,-537,-263,-268,5,265
,1001,2016/11/29 07:26:54.34,-1936,7920,-14464,423,308,-602,-189,-180,-9,184
,1002,2016/11/29 07:26:54.35,-2022,7919,-14519,466,337,-676,-214,-197,-17,205
,1003,2016/11/29 07:26:54.36,-1876,7908,-14566,492,329,-718,-210,-192,-18,201
,1004,2016/11/29 07:26:54.37,-1851,7832,-14644,545,367,-744,-157,-150,-7,153
,1005,2016/11/29 07:26:54.38,-1852,7795,-14590,606,340,-778,-240,-230,-10,235
,1006,2016/11/29 07:26:54.39,-1995,7729,-14651,647,343,-801,-156,-150,-6,153
,1007,2016/11/29 07:26:54.40,-1965,7749,-14597,684,337,-809,-188,-198,10,193
,1008,2016/11/29 07:26:54.41,-1902,7713,-14611,687,318,-828,-186,-201,15,193
,1009,2016/11/29 07:26:54.42,-1964,7611,-14590,682,292,-812,-113,-146,33,129
,1010,2016/11/29 07:26:54.43,-1981,7646,-14654,665,266,-836,-203,-228,25,215
,1011,2016/11/29 07:26:54.44,-1909,7593,-14586,624,270,-818,-132,-158,26,145
,1012,2016/11/29 07:26:54.45,-1971,7454,-14496,580,282,-785,-194,-204,10,199
,1013,2016/11/29 07:26:54.46,-2015,7494,-14577,513,259,-749,-223,-213,-10,218
,1014,2016/11/29 07:26:54.47,-1934,7442,-14571,463,220,-699,-177,-166,-11,171
,1015,2016/11/29 07:26:54.48,-1965,7464,-14587,373,228,-635,-285,-262,-23,273
,1016,2016/11/29 07:26:54.49,-1887,7503,-14540,291,256,-582,-215,-189,-26,202
,1017,2016/11/29 07:26:54.50,-1909,7334,-14539,238,251,-527,-226,-201,-25,213
,1018,2016/11/29 07:26:54.51,-1962,7497,-14645,204,267,-472,-196,-173,-23,184
,1019,2016/11/29 07:26:54.52,-1956,7401,-14637,178,256,-431,-163,-132,-31,147
,1020,2016/11/29 07:26:54.53,-1901,7342,-14627,183,269,-396,-264,-220,-44,242
,1021,2016/11/29 07:26:54.54,-1918,7320,-14685,185,279,-347,-176,-152,-24,164
,1022,2016/11/29 07:26:54.55,-1899,7315,-14623,215,301,-312,-202,-189,-13,195
,1023,2016/11/29 07:26:54.56,-1895,7347,-14667,270,308,-251,-207,-187,-20,197
,1024,2016/11/29 07:26:54.57,-1862,7383,-14731,293,319,-201,-152,-144,-8,148
,1025,2016/11/29 07:26:54.58,-1935,7415,-14730,319,311,-165,-243,-225,-18,234
,1026,2016/11/29 07:26:54.59,-1832,7434,-14727,319,307,-140,-156,-146,-10,151
,1027,2016/11/29 07:26:54.60,-1927,7516,-14652,314,287,-130,-197,-182,-15,189
,1028,2016/11/29 07:26:54.61,-1942,7578,-14724,286,262,-121,-228,-193,-35,210
,1029,2016/11/29 07:26:54.62,-1881,7523,-14718,225,258,-133,-172,-152,-20,162
,1030,2016/11/29 07:26:54.63,-1998,7527,-14722,193,213,-136,-264,-245,-19,254
,1031,2016/11/29 07:26:54.64,-1882,7498,-14710,117,189,-149,-161,-158,-3,159
,1032,2016/11/29 07:26:54.65,-1890,7454,-14713,26,141,-171,-191,-176,-15,183
,1033,2016/11/29 07:26:54.66,-1956,7532,-14763,-103,92,-146,-202,-170,-32,186
,1034,2016/11/29 07:26:54.67,-1899,7434,-14685,-233,27,-136,-137,-122,-15,129
,1035,2016/11/29 07:26:54.68,-1935,7500,-14626,-358,36,-123,-236,-211,-25,223
,1036,2016/11/29 07:26:54.69,-1903,7469,-14667,-448,-18,-127,-192,-164,-28,178
,1037,2016/11/29 07:26:54.70,-1872,7492,-14685,-533,-12,-108,-227,-209,-18,218
,1038,2016/11/29 07:26:54.71,-2063,7545,-14683,-599,-67,-92,-243,-215,-28,229
,1039,2016/11/29 07:26:54.72,-1991,7564,-14599,-659,-137,-88,-169,-148,-21,158
,1040,2016/11/29 07:26:54.73,-1947,7513,-14553,-702,-83,-68,-229,-197,-32,213
,1041,2016/11/29 07:26:54.74,-1876,7535,-14596,-719,-51,-67,-139,-116,-23,127
,1042,2016/11/29 07:26:54.75,-1866,7599,-14557,-681,-43,-74,-167,-162,-5,164
,1043,2016/11/29 07:26:54.76,-1898,7594,-14611,-657,22,-88,-202,-194,-8,198
,1044,2016/11/29 07:26:54.77,-1903,7611,-14675,-581,30,-122,-172,-160,-12,166
,1045,2016/11/29 07:26:54.78,-1948,7609,-14598,-456,46,-138,-268,-239,-29,253
,1046,2016/11/29 07:26:54.79,-2029,7694,-14706,-316,70,-151,-189,-158,-31,173
,1047,2016/11/29 07:26:54.80,-1965,7740,-14628,-202,33,-184,-218,-179,-39,198
,1048,2016/11/29 07:26:54.81,-1918,7749,-14611,-189,55,-215,-222,-155,-67,188
,1049,2016/11/29 07:26:54.82,-1948,7740,-14635,-204,66,-234,-134,-84,-50,109
,1050,2016/11/29 07:26:54.83,-1902,7680,-14518,-188,60,-269,-205,-157,-48,181
,1051,2016/11/29 07:26:54.84,-1829,7707,-14675,-213,104,-289,-132,-95,-37,113
,1052,2016/11/29 07:26:54.85,-1859,7785,-14661,-234,155,-306,-172,-144,-28,158
,1053,2016/11/29 07:26:54.86,-1887,7691,-14600,-299,192,-327,-196,-170,-26,183
,1054,2016/11/29 07:26:54.87,-1888,7635,-14529,-311,255,-357,-118,-109,-9,113
,1055,2016/11/29 07:26:54.88,-1883,7561,-14586,-293,313,-332,-192,-170,-22,181
,1056,2016/11/29 07:26:54.89,-1859,7632,-14646,-235,331,-324,-109,-106,-3,107
,1057,2016/11/29 07:26:54.90,-1870,7609,-14716,-162,320,-308,-152,-151,-1,151
,1058,2016/11/29 07:26:54.91,-1818,7618,-14692,-104,305,-271,-183,-152,-31,167
,1059,2016/11/29 07:26:54.92,-1861,7555,-14661,-62,266,-263,-164,-111,-53,137
,1060,2016/11/29 07:26:54.93,-1861,7520,-14650,2,279,-256,-256,-200,-56,228
,1061,2016/11/29 07:26:54.94,-1822,7469,-14672,40,253,-209,-162,-125,-37,143
,1062,2016/11/29 07:26:54.95,-1810,7418,-14724,62,227,-164,-166,-138,-28,152
,1063,2016/11/29 07:26:54.96,-1807,7398,-14772,72,186,-118,-144,-114,-30,129
,1064,2016/11/29 07:26:54.97,-1872,7380,-14786,71,168,-65,-82,-71,-11,76
,1065,2016/11/29 07:26:54.98,-1875,7434,-14796,51,98,-9,-201,-178,-23,189
,1066,2016/11/29 07:26:54.99,-1825,7492,-14726,5,16,33,-145,-106,-39,125
,1067,2016/11/29 07:26:55.00,-1883,7497,-14658,-38,-67,75,-167,-135,-32,151
,1068,2016/11/29 07:26:55.01,-1962,7507,-14721,-87,-101,87,-166,-146,-20,156
,1069,2016/11/29 07:26:55.02,-1833,7500,-14713,-116,-128,130,-92,-81,-11,86
,1070,2016/11/29 07:26:55.03,-1874,7474,-14654,-124,-200,145,-197,-155,-42,176
,1071,2016/11/29 07:26:55.04,-1964,7504,-14590,-121,-205,167,-160,-108,-52,134
,1072,2016/11/29 07:26:55.05,-1837,7611,-14629,-175,-204,162,-188,-151,-37,169
,1073,2016/11/29 07:26:55.06,-1803,7495,-14613,-249,-183,185,-180,-158,-22,169
,1074,2016/11/29 07:26:55.07,-1934,7583,-14588,-209,-219,169,-98,-105,7,101
,1075,2016/11/29 07:26:55.08,-1901,7596,-14564,-247,-322,173,-194,-183,-11,188
,1076,2016/11/29 07:26:55.09,-1879,7643,-14598,-338,-266,156,-161,-145,-16,153
,1077,2016/11/29 07:26:55.10,-1910,7660,-14620,-403,-285,101,-222,-190,-32,206
,1078,2016/11/29 07:26:55.11,-1790,7541,-14569,-429,-265,55,-238,-176,-62,207
,1079,2016/11/29 07:26:55.12,-1912,7551,-14599,-377,-242,16,-116,-77,-39,96
,1080,2016/11/29 07:26:55.13,-1827,7563,-14654,-324,-225,-19,-155,-132,-23,143
,1081,2016/11/29 07:26:55.14,-1965,7648,-14594,-312,-207,-25,-82,-75,-7,78
,1082,2016/11/29 07:26:55.15,-1915,7808,-14649,-307,-236,-84,-143,-140,-3,141
,1083,2016/11/29 07:26:55.16,-1994,7720,-14602,-370,-254,-107,-192,-171,-21,181
,1084,2016/11/29 07:26:55.17,-1993,7671,-14563,-478,-256,-118,-149,-110,-39,129
,1085,2016/11/29 07:26:55.18,-1983,7706,-14581,-557,-264,-160,-240,-190,-50,215
,1086,2016/11/29 07:26:55.19,-1920,7663,-14593,-613,-289,-157,-124,-101,-23,112
,1087,2016/11/29 07:26:55.20,-1994,7674,-14516,-661,-335,-181,-128,-124,-4,126
,1088,2016/11/29 07:26:55.21,-1939,7696,-14557,-704,-345,-214,-164,-154,-10,159
,1089,2016/11/29 07:26:55.22,-2045,7690,-14504,-755,-397,-247,-98,-108,10,103
,1090,2016/11/29 07:26:55.23,-1931,7666,-14544,-788,-426,-245,-198,-197,-1,197
,1091,2016/11/29 07:26:55.24,-1931,7704,-14539,-856,-468,-276,-156,-149,-7,152
,1092,2016/11/29 07:26:55.25,-2027,7768,-14548,-955,-493,-297,-193,-177,-16,185
,1093,2016/11/29 07:26:55.26,-1937,7735,-14514,-1103,-549,-326,-216,-183,-33,199
,1094,2016/11/29 07:26:55.27,-2009,7762,-14536,-1266,-600,-350,-131,-127,-4,129
,1095,2016/11/29 07:26:55.28,-2003,7817,-14646,-1473,-676,-389,-215,-209,-6,212
,1096,2016/11/29 07:26:55.29,-2062,7684,-14661,-1671,-803,-400,-142,-130,-12,136
,1097,2016/11/29 07:26:55.30,-2101,7659,-14650,-1822,-948,-411,-153,-141,-12,147
,1098,2016/11/29 07:26:55.31,-2091,7630,-14612,-1941,-1180,-408,-164,-131,-33,147
,1099,2016/11/29 07:26:55.32,-2214,7642,-14819,-2175,-1239,-380,-96,-75,-21,85
,1100,2016/11/29 07:26:55.33,-2232,7535,-14661,-2397,-1443,-351,-195,-170,-25,182
,1101,2016/11/29 07:26:55.34,-2165,7470,-14588,-2541,-1429,-318,-135,-113,-22,124
,1102,2016/11/29 07:26:55.35,-2265,7468,-14321,-2523,-1543,-281,-159,-142,-17,150
,1103,2016/11/29 07:26:55.36,-2267,7655,-14490,-2404,-1423,-255,-180,-136,-44,158
,1104,2016/11/29 07:26:55.37,-2227,7793,-14258,-2240,-1433,-257,-99,-55,-44,77
,1105,2016/11/29 07:26:55.38,-2362,7894,-14240,-2016,-1318,-240,-202,-140,-62,171
,1106,2016/11/29 07:26:55.39,-2560,8013,-14178,-1822,-1218,-204,-169,-102,-67,135
,1107,2016/11/29 07:26:55.40,-2518,8115,-14023,-1657,-1226,-181,-197,-138,-59,167
,1108,2016/11/29 07:26:55.41,-2737,8306,-14037,-1600,-1050,-135,-222,-157,-65,189
,1109,2016/11/29 07:26:55.42,-2606,8429,-13941,-1559,-997,-141,-131,-61,-70,96
,1110,2016/11/29 07:26:55.43,-2650,8629,-13985,-1548,-855,-175,-211,-120,-91,165
,1111,2016/11/29 07:26:55.44,-2566,8695,-13779,-1488,-773,-238,-138,-61,-77,99
,1112,2016/11/29 07:26:55.45,-2689,8880,-13897,-1416,-507,-310,-165,-114,-51,139
,1113,2016/11/29 07:26:55.46,-2662,8748,-13852,-1285,-487,-404,-230,-167,-63,198
,1114,2016/11/29 07:26:55.47,-2761,8870,-13868,-1164,-243,-467,-153,-120,-33,136
,1115,2016/11/29 07:26:55.48,-2638,8744,-13810,-979,-253,-509,-226,-181,-45,203
,1116,2016/11/29 07:26:55.49,-2735,8651,-13903,-870,-105,-517,-152,-86,-66,119
,1117,2016/11/29 07:26:55.50,-2745,8568,-14029,-689,-1,-485,-163,-106,-57,134
,1118,2016/11/29 07:26:55.51,-2736,8440,-14105,-514,21,-434,-193,-128,-65,160
,1119,2016/11/29 07:26:55.52,-2877,8564,-14122,-351,154,-376,-128,-86,-42,107
,1120,2016/11/29 07:26:55.53,-2786,8546,-14066,-237,227,-308,-216,-190,-26,203
,1121,2016/11/29 07:26:55.54,-2675,8541,-14118,-126,363,-258,-147,-115,-32,131
,1122,2016/11/29 07:26:55.55,-2605,8552,-14125,-67,421,-191,-158,-124,-34,141
,1123,2016/11/29 07:26:55.56,-2689,8492,-14081,34,487,-109,-187,-136,-51,161
,1124,2016/11/29 07:26:55.57,-2490,8447,-14111,139,505,-47,-106,-59,-47,82
,1125,2016/11/29 07:26:55.58,-2385,8462,-14110,242,519,27,-188,-142,-46,165
,1126,2016/11/29 07:26:55.59,-2488,8426,-14113,360,550,91,-126,-90,-36,108
,1127,2016/11/29 07:26:55.60,-2550,8486,-14152,470,590,129,-155,-130,-25,142
,1128,2016/11/29 07:26:55.61,-2484,8438,-14120,575,570,178,-191,-160,-31,175
,1129,2016/11/29 07:26:55.62,-2539,8385,-14167,703,524,195,-106,-105,-1,105
,1130,2016/11/29 07:26:55.63,-2559,8391,-14171,777,466,222,-199,-193,-6,196
,1131,2016/11/29 07:26:55.64,-2470,8347,-14160,803,403,256,-156,-140,-16,148
,1132,2016/11/29 07:26:55.65,-2416,8348,-14118,772,340,252,-183,-158,-25,170
,1133,2016/11/29 07:26:55.66,-2451,8291,-14063,695,310,278,-222,-178,-44,200
,1134,2016/11/29 07:26:55.67,-2482,8289,-14073,586,279,262,-131,-109,-22,120
,1135,2016/11/29 07:26:55.68,-2482,8286,-14083,486,217,260,-213,-195,-18,204
,1136,2016/11/29 07:26:55.69,-2448,8319,-14121,381,189,249,-161,-154,-7,157
,1137,2016/11/29 07:26:55.70,-2524,8366,-14144,286,156,216,-176,-186,10,181
,1138,2016/11/29 07:26:55.71,-2425,8344,-14156,215,136,200,-217,-213,-4,215
,1139,2016/11/29 07:26:55.72,-2538,8340,-14108,177,85,164,-134,-144,10,139
,1140,2016/11/29 07:26:55.73,-2517,8402,-14137,173,102,119,-210,-212,2,211
,1141,2016/11/29 07:26:55.74,-2526,8445,-14140,181,99,66,-144,-131,-13,137
,1142,2016/11/29 07:26:55.75,-2457,8511,-14122,184,104,5,-160,-142,-18,151
,1143,2016/11/29 07:26:55.76,-2517,8532,-14129,155,124,-33,-205,-174,-31,189
,1144,2016/11/29 07:26:55.77,-2453,8481,-14013,154,126,-91,-126,-120,-6,123
,1145,2016/11/29 07:26:55.78,-2476,8418,-14066,134,131,-136,-215,-208,-7,211
,1146,2016/11/29 07:26:55.79,-2541,8308,-14084,118,162,-148,-141,-133,-8,137
,1147,2016/11/29 07:26:55.80,-2572,8258,-14133,155,179,-146,-152,-139,-13,145
,1148,2016/11/29 07:26:55.81,-2513,8270,-14111,183,192,-112,-197,-167,-30,182
,1149,2016/11/29 07:26:55.82,-2534,8322,-14143,165,275,-76,-150,-107,-43,128
,1150,2016/11/29 07:26:55.83,-2399,8351,-14173,131,326,-56,-249,-194,-55,221
,1151,2016/11/29 07:26:55.84,-2410,8316,-14186,110,358,-25,-190,-154,-36,172
,1152,2016/11/29 07:26:55.85,-2461,8343,-14215,105,375,0,-200,-181,-19,190
,1153,2016/11/29 07:26:55.86,-2483,8311,-14210,96,367,14,-239,-210,-29,224
,1154,2016/11/29 07:26:55.87,-2373,8351,-14243,109,350,15,-128,-123,-5,125
,1155,2016/11/29 07:26:55.88,-2392,8357,-14231,124,332,31,-186,-173,-13,179
,1156,2016/11/29 07:26:55.89,-2433,8294,-14227,110,318,35,-112,-96,-16,104
,1157,2016/11/29 07:26:55.90,-2386,8263,-14202,156,323,34,-163,-131,-32,147
,1158,2016/11/29 07:26:55.91,-2313,8212,-14254,173,335,53,-242,-188,-54,215
,1159,2016/11/29 07:26:55.92,-2371,8220,-14176,217,312,67,-177,-136,-41,156
,1160,2016/11/29 07:26:55.93,-2394,8236,-14204,275,338,81,-248,-208,-40,228
,1161,2016/11/29 07:26:55.94,-2313,8305,-14194,313,349,79,-192,-140,-52,166
,1162,2016/11/29 07:26:55.95,-2341,8194,-14278,318,348,79,-190,-142,-48,166
,1163,2016/11/29 07:26:55.96,-2312,8249,-14258,297,368,84,-201,-155,-46,178
,1164,2016/11/29 07:26:55.97,-2359,8261,-14270,282,340,56,-143,-107,-36,125
,1165,2016/11/29 07:26:55.98,-2315,8221,-14280,261,320,43,-256,-215,-41,235
,1166,2016/11/29 07:26:55.99,-2294,8242,-14273,255,319,39,-218,-170,-48,194
,1167,2016/11/29 07:26:56.00,-2278,8232,-14307,227,292,17,-212,-184,-28,198
,1168,2016/11/29 07:26:56.01,-2270,8250,-14312,181,279,17,-248,-220,-28,234
,1169,2016/11/29 07:26:56.02,-2279,8150,-14312,147,272,13,-181,-148,-33,164
,1170,2016/11/29 07:26:56.03,-2282,8141,-14314,177,240,18,-267,-220,-47,243
,1171,2016/11/29 07:26:56.04,-2347,8169,-14290,178,250,23,-186,-144,-42,165
,1172,2016/11/29 07:26:56.05,-2258,8059,-14307,187,252,55,-165,-148,-17,156
,1173,2016/11/29 07:26:56.06,-2226,8104,-14349,214,230,86,-191,-173,-18,182
,1174,2016/11/29 07:26:56.07,-2300,8046,-14341,243,229,138,-116,-102,-14,109
,1175,2016/11/29 07:26:56.08,-2291,8003,-14286,255,223,174,-218,-183,-35,200
,1176,2016/11/29 07:26:56.09,-2247,8053,-14311,262,203,240,-162,-120,-42,141
,1177,2016/11/29 07:26:56.10,-2204,8050,-14327,241,219,299,-180,-137,-43,158
,1178,2016/11/29 07:26:56.11,-2272,8032,-14335,229,208,356,-233,-176,-57,204
,1179,2016/11/29 07:26:56.12,-2236,8074,-14298,212,232,409,-173,-112,-61,142
,1180,2016/11/29 07:26:56.13,-2169,8010,-14215,220,235,456,-251,-196,-55,223
,1181,2016/11/29 07:26:56.14,-2242,8036,-14220,218,255,500,-187,-149,-38,168
,1182,2016/11/29 07:26:56.15,-2222,7996,-14231,222,236,564,-214,-173,-41,193
,1183,2016/11/29 07:26:56.16,-2262,8044,-14286,230,289,587,-287,-238,-49,262
,1184,2016/11/29 07:26:56.17,-2264,8039,-14346,214,282,633,-174,-172,-2,173
,1185,2016/11/29 07:26:56.18,-2257,8025,-14381,229,289,689,-226,-221,-5,223
,1186,2016/11/29 07:26:56.19,-2311,8015,-14379,258,277,722,-126,-113,-13,119
,1187,2016/11/29 07:26:56.20,-2266,8050,-14348,301,237,764,-123,-103,-20,113
,1188,2016/11/29 07:26:56.21,-2226,8089,-14322,332,215,811,-189,-151,-38,170
,1189,2016/11/29 07:26:56.22,-2203,8104,-14361,351,234,808,-138,-122,-16,130
,1190,2016/11/29 07:26:56.23,-2180,8135,-14335,352,244,809,-233,-223,-10,228
,1191,2016/11/29 07:26:56.24,-2180,8110,-14315,343,258,812,-184,-166,-18,175
,1192,2016/11/29 07:26:56.25,-2059,8045,-14332,377,301,786,-216,-182,-34,199
,1193,2016/11/29 07:26:56.26,-2047,8187,-14366,428,291,741,-273,-222,-51,247
,1194,2016/11/29 07:26:56.27,-2081,8187,-14257,457,320,696,-194,-142,-52,168
,1195,2016/11/29 07:26:56.28,-2069,8208,-14302,455,379,654,-257,-217,-40,237
,1196,2016/11/29 07:26:56.29,-2123,8180,-14369,458,420,591,-187,-157,-30,172
,1197,2016/11/29 07:26:56.30,-1951,8208,-14344,460,421,546,-191,-172,-19,181
,1198,2016/11/29 07:26:56.31,-2061,8130,-14372,516,408,503,-251,-233,-18,242
,1199,2016/11/29 07:26:56.32,-2077,8034,-14330,563,413,459,-172,-173,1,172
,1200,2016/11/29 07:26:56.33,-1981,8069,-14390,623,396,398,-256,-250,-6,253
,1201,2016/11/29 07:26:56.34,-2042,8044,-14413,689,395,367,-178,-161,-17,169
,1202,2016/11/29 07:26:56.35,-1957,8067,-14368,735,412,325,-171,-138,-33,154
,1203,2016/11/29 07:26:56.36,-1904,8122,-14461,757,443,260,-221,-188,-33,204
,1204,2016/11/29 07:26:56.37,-1967,8058,-14445,766,430,210,-174,-140,-34,157
,1205,2016/11/29 07:26:56.38,-1937,8019,-14339,750,460,119,-268,-230,-38,249
,1206,2016/11/29 07:26:56.39,-1906,8037,-14434,725,508,83,-199,-177,-22,188
,1207,2016/11/29 07:26:56.40,-1811,7970,-14360,724,491,2,-175,-176,1,175
,1208,2016/11/29 07:26:56.41,-1959,7924,-14390,678,527,-44,-211,-208,-3,209
,1209,2016/11/29 07:26:56.42,-1947,7948,-14496,636,562,-112,-146,-145,-1,145
,1210,2016/11/29 07:26:56.43,-1851,7957,-14502,611,562,-135,-230,-228,-2,229
,1211,2016/11/29 07:26:56.44,-1935,7869,-14435,554,531,-158,-161,-154,-7,157
,1212,2016/11/29 07:26:56.45,-1853,7786,-14495,545,570,-196,-174,-154,-20,164
,1213,2016/11/29 07:26:56.46,-1899,7695,-14571,525,484,-195,-233,-204,-29,218
,1214,2016/11/29 07:26:56.47,-1956,7565,-14591,508,447,-188,-156,-135,-21,145
,1215,2016/11/29 07:26:56.48,-1865,7519,-14645,495,464,-149,-229,-213,-16,221
,1216,2016/11/29 07:26:56.49,-1787,7528,-14608,530,352,-110,-146,-142,-4,144
,1217,2016/11/29 07:26:56.50,-1754,7444,-14553,505,368,-77,-123,-148,25,135
,1218,2016/11/29 07:26:56.51,-1821,7507,-14621,475,419,-41,-164,-195,31,179
,1219,2016/11/29 07:26:56.52,-1754,7509,-14558,442,415,-25,-115,-126,11,120
,1220,2016/11/29 07:26:56.53,-1859,7533,-14576,415,426,-6,-224,-210,-14,217
,1221,2016/11/29 07:26:56.54,-1892,7609,-14730,335,378,25,-168,-154,-14,161
,1222,2016/11/29 07:26:56.55,-1839,7541,-14667,252,243,61,-155,-155,0,155
,1223,2016/11/29 07:26:56.56,-1812,7458,-14691,171,253,108,-194,-194,0,194
,1224,2016/11/29 07:26:56.57,-1885,7423,-14755,118,241,160,-141,-126,-15,133
,1225,2016/11/29 07:26:56.58,-1660,7468,-14793,85,193,186,-226,-202,-24,214
,1226,2016/11/29 07:26:56.59,-1845,7502,-14705,50,181,184,-155,-164,9,159
,1227,2016/11/29 07:26:56.60,-1819,7548,-14632,32,151,203,-143,-178,35,160
,1228,2016/11/29 07:26:56.61,-1888,7524,-14588,44,81,202,-203,-222,19,212
,1229,2016/11/29 07:26:56.62,-1844,7548,-14647,40,70,189,-166,-159,-7,162
,1230,2016/11/29 07:26:56.63,-1825,7575,-14581,41,64,192,-260,-231,-29,245
,1231,2016/11/29 07:26:56.64,-1849,7566,-14613,68,74,170,-187,-168,-19,177
,1232,2016/11/29 07:26:56.65,-1805,7541,-14608,76,17,170,-159,-158,-1,158
,1233,2016/11/29 07:26:56.66,-1904,7586,-14629,76,41,152,-187,-188,1,187
,1234,2016/11/29 07:26:56.67,-1867,7586,-14628,39,55,129,-121,-104,-17,112
,1235,2016/11/29 07:26:56.68,-1796,7609,-14563,-5,104,92,-207,-177,-30,192
,1236,2016/11/29 07:26:56.69,-1830,7704,-14610,-59,158,53,-160,-136,-24,148
,1237,2016/11/29 07:26:56.70,-1829,7712,-14571,-129,220,10,-155,-154,-1,154
,1238,2016/11/29 07:26:56.71,-1919,7749,-14532,-193,228,-26,-203,-213,10,208
,1239,2016/11/29 07:26:56.72,-1858,7688,-14599,-283,232,-67,-108,-137,29,122
,1240,2016/11/29 07:26:56.73,-1795,7702,-14547,-317,251,-108,-183,-201,18,192
,1241,2016/11/29 07:26:56.74,-1792,7693,-14564,-350,218,-138,-123,-140,17,131
,1242,2016/11/29 07:26:56.75,-1759,7708,-14631,-316,225,-144,-132,-143,11,137
,1243,2016/11/29 07:26:56.76,-1784,7765,-14532,-300,206,-170,-204,-196,-8,200
,1244,2016/11/29 07:26:56.77,-1819,7746,-14576,-282,205,-192,-154,-152,-2,153
,1245,2016/11/29 07:26:56.78,-1835,7738,-14635,-229,184,-208,-251,-239,-12,245
,1246,2016/11/29 07:26:56.79,-1820,7725,-14632,-205,188,-216,-184,-172,-12,178
,1247,2016/11/29 07:26:56.80,-1723,7724,-14619,-190,193,-206,-162,-151,-11,156
,1248,2016/11/29 07:26:56.81,-1843,7731,-14611,-173,184,-199,-190,-173,-17,181
,1249,2016/11/29 07:26:56.82,-1818,7710,-14626,-182,164,-195,-87,-86,-1,86
,1250,2016/11/29 07:26:56.83,-1828,7665,-14651,-167,132,-174,-163,-157,-6,160
,1251,2016/11/29 07:26:56.84,-1744,7700,-14595,-169,85,-166,-112,-107,-5,109
,1252,2016/11/29 07:26:56.85,-1777,7685,-14670,-179,87,-134,-120,-112,-8,116
,1253,2016/11/29 07:26:56.86,-1790,7622,-14632,-179,67,-102,-185,-166,-19,175
,1254,2016/11/29 07:26:56.87,-1825,7653,-14523,-153,53,-66,-109,-108,-1,108
,1255,2016/11/29 07:26:56.88,-1867,7666,-14583,-164,16,-62,-202,-204,2,203
,1256,2016/11/29 07:26:56.89,-1785,7670,-14563,-155,16,-44,-141,-138,-3,139
,1257,2016/11/29 07:26:56.90,-1823,7662,-14564,-172,40,-13,-153,-123,-30,138
,1258,2016/11/29 07:26:56.91,-1858,7714,-14679,-187,44,1,-232,-174,-58,203
,1259,2016/11/29 07:26:56.92,-1761,7623,-14586,-163,2,30,-205,-145,-60,175
,1260,2016/11/29 07:26:56.93,-1852,7644,-14559,-149,-35,50,-299,-244,-55,271
,1261,2016/11/29 07:26:56.94,-1920,7701,-14519,-134,-36,72,-221,-167,-54,194
,1262,2016/11/29 07:26:56.95,-1831,7679,-14543,-149,-16,68,-148,-133,-15,140
,1263,2016/11/29 07:26:56.96,-1735,7713,-14557,-151,-5,82,-142,-142,0,142
,1264,2016/11/29 07:26:56.97,-1806,7656,-14565,-142,-3,96,-55,-66,11,60
,1265,2016/11/29 07:26:56.98,-1826,7739,-14574,-136,12,113,-178,-164,-14,171
,1266,2016/11/29 07:26:56.99,-1807,7786,-14520,-148,35,125,-153,-116,-37,134
,1267,2016/11/29 07:26:57.00,-1777,7773,-14544,-150,77,121,-181,-134,-47,157
,1268,2016/11/29 07:26:57.01,-1819,7807,-14634,-153,82,134,-254,-193,-61,223
,1269,2016/11/29 07:26:57.02,-1777,7862,-14576,-149,103,122,-135,-112,-23,123
,1270,2016/11/29 07:26:57.03,-1816,7815,-14633,-140,88,91,-198,-184,-14,191
,1271,2016/11/29 07:26:57.04,-1778,7839,-14619,-109,80,75,-178,-144,-34,161
,1272,2016/11/29 07:26:57.05,-1727,7823,-14565,-59,88,38,-205,-162,-43,183
,1273,2016/11/29 07:26:57.06,-1631,7842,-14532,-34,85,27,-274,-230,-44,252
,1274,2016/11/29 07:26:57.07,-1730,7803,-14528,15,74,-14,-195,-156,-39,175
,1275,2016/11/29 07:26:57.08,-1697,7783,-14578,82,91,-8,-253,-221,-32,237
,1276,2016/11/29 07:26:57.09,-1715,7743,-14553,110,99,-19,-165,-164,-1,164
,1277,2016/11/29 07:26:57.10,-1758,7745,-14534,123,116,-9,-126,-142,16,134
,1278,2016/11/29 07:26:57.11,-1738,7713,-14567,146,113,8,-169,-163,-6,166
,1279,2016/11/29 07:26:57.12,-1806,7724,-14580,138,94,20,-95,-77,-18,86
,1280,2016/11/29 07:26:57.13,-1751,7749,-14584,140,109,29,-188,-157,-31,172
,1281,2016/11/29 07:26:57.14,-1764,7722,-14600,133,123,64,-166,-134,-32,150
,1282,2016/11/29 07:26:57.15,-1783,7686,-14578,140,116,83,-192,-151,-41,171
,1283,2016/11/29 07:26:57.16,-1719,7729,-14657,123,101,91,-262,-202,-60,232
,1284,2016/11/29 07:26:57.17,-1846,7747,-14569,143,97,87,-165,-120,-45,142
,1285,2016/11/29 07:26:57.18,-1724,7725,-14570,124,97,96,-230,-185,-45,207
,1286,2016/11/29 07:26:57.19,-1714,7702,-14627,170,93,102,-190,-132,-58,161
,1287,2016/11/29 07:26:57.20,-1727,7698,-14647,181,91,99,-195,-131,-64,163
,1288,2016/11/29 07:26:57.21,-1807,7640,-14612,222,39,94,-249,-178,-71,213
,1289,2016/11/29 07:26:57.22,-1791,7662,-14553,251,11,104,-131,-116,-15,123
,1290,2016/11/29 07:26:57.23,-1757,7741,-14528,216,21,87,-197,-201,4,199
,1291,2016/11/29 07:26:57.24,-1729,7682,-14547,187,86,82,-164,-147,-17,155
,1292,2016/11/29 07:26:57.25,-1741,7714,-14566,166,86,91,-165,-125,-40,145
,1293,2016/11/29 07:26:57.26,-1730,7692,-14652,169,89,58,-219,-163,-56,191
,1294,2016/11/29 07:26:57.27,-1787,7648,-14663,162,95,75,-145,-102,-43,123
,1295,2016/11/29 07:26:57.28,-1734,7660,-14639,197,78,92,-234,-182,-52,208
,1296,2016/11/29 07:26:57.29,-1723,7643,-14678,208,78,89,-205,-144,-61,174
,1297,2016/11/29 07:26:57.30,-1763,7612,-14652,239,75,88,-194,-141,-53,167
,1298,2016/11/29 07:26:57.31,-1779,7651,-14668,260,62,86,-241,-185,-56,213
,1299,2016/11/29 07:26:57.32,-1778,7588,-14616,256,70,74,-171,-111,-60,141
,1300,2016/11/29 07:26:57.33,-1783,7595,-14640,293,85,92,-245,-189,-56,217
,1301,2016/11/29 07:26:57.34,-1733,7552,-14619,311,91,99,-219,-162,-57,190
,1302,2016/11/29 07:26:57.35,-1780,7566,-14665,318,92,122,-206,-159,-47,182
,1303,2016/11/29 07:26:57.36,-1743,7555,-14680,349,109,129,-255,-214,-41,234
,1304,2016/11/29 07:26:57.37,-1724,7563,-14611,339,106,153,-178,-144,-34,161
,1305,2016/11/29 07:26:57.38,-1732,7557,-14629,350,132,157,-255,-224,-31,239
,1306,2016/11/29 07:26:57.39,-1725,7594,-14635,338,141,170,-215,-187,-28,201
,1307,2016/11/29 07:26:57.40,-1765,7599,-14646,335,154,170,-196,-175,-21,185
,1308,2016/11/29 07:26:57.41,-1651,7602,-14634,335,176,147,-255,-230,-25,242
,1309,2016/11/29 07:26:57.42,-1755,7548,-14736,356,172,137,-159,-142,-17,150
,1310,2016/11/29 07:26:57.43,-1745,7552,-14747,344,176,126,-225,-195,-30,210
,1311,2016/11/29 07:26:57.44,-1667,7499,-14701,342,172,85,-192,-149,-43,170
,1312,2016/11/29 07:26:57.45,-1592,7522,-14678,319,178,61,-183,-143,-40,163
,1313,2016/11/29 07:26:57.46,-1639,7466,-14691,273,177,43,-249,-191,-58,220
,1314,2016/11/29 07:26:57.47,-1646,7511,-14670,256,164,-10,-181,-120,-61,150
,1315,2016/11/29 07:26:57.48,-1701,7458,-14727,245,140,-44,-240,-193,-47,216
,1316,2016/11/29 07:26:57.49,-1674,7393,-14752,232,116,-50,-180,-144,-36,162
,1317,2016/11/29 07:26:57.50,-1681,7377,-14691,247,141,-65,-182,-143,-39,162
,1318,2016/11/29 07:26:57.51,-1647,7295,-14749,276,134,-68,-258,-200,-58,229
,1319,2016/11/29 07:26:57.52,-1661,7383,-14711,301,165,-61,-207,-138,-69,172
,1320,2016/11/29 07:26:57.53,-1650,7363,-14757,318,156,-59,-280,-223,-57,251
,1321,2016/11/29 07:26:57.54,-1602,7354,-14735,317,152,-57,-246,-188,-58,217
,1322,2016/11/29 07:26:57.55,-1639,7369,-14730,318,144,-48,-228,-170,-58,199
,1323,2016/11/29 07:26:57.56,-1621,7389,-14761,285,158,-37,-268,-212,-56,240
,1324,2016/11/29 07:26:57.57,-1716,7371,-14760,287,161,-46,-169,-122,-47,145
,1325,2016/11/29 07:26:57.58,-1698,7420,-14770,281,151,-34,-240,-192,-48,216
,1326,2016/11/29 07:26:57.59,-1613,7356,-14744,237,152,-40,-222,-153,-69,187
,1327,2016/11/29 07:26:57.60,-1679,7372,-14784,229,134,-58,-190,-126,-64,158
,1328,2016/11/29 07:26:57.61,-1685,7347,-14799,211,129,-43,-243,-184,-59,213
,1329,2016/11/29 07:26:57.62,-1634,7312,-14768,197,113,-59,-183,-131,-52,157
,1330,2016/11/29 07:26:57.63,-1614,7295,-14797,195,113,-63,-272,-222,-50,247
,1331,2016/11/29 07:26:57.64,-1714,7324,-14803,173,106,-33,-246,-194,-52,220
,1332,2016/11/29 07:26:57.65,-1665,7276,-14863,123,85,-15,-223,-177,-46,200
,1333,2016/11/29 07:26:57.66,-1716,7197,-14842,93,35,-3,-256,-202,-54,229
,1334,2016/11/29 07:26:57.67,-1657,7252,-14750,73,12,34,-135,-110,-25,122
,1335,2016/11/29 07:26:57.68,-1674,7268,-14713,10,-7,40,-215,-188,-27,201
,1336,2016/11/29 07:26:57.69,-1620,7261,-14730,-91,-12,22,-219,-167,-52,193
,1337,2016/11/29 07:26:57.70,-1621,7272,-14744,-184,-24,29,-220,-163,-57,191
,1338,2016/11/29 07:26:57.71,-1581,7264,-14720,-262,-22,29,-282,-221,-61,251
,1339,2016/11/29 07:26:57.72,-1647,7185,-14720,-355,-20,9,-206,-130,-76,168
,1340,2016/11/29 07:26:57.73,-1572,7294,-14726,-439,-49,-23,-267,-189,-78,228
,1341,2016/11/29 07:26:57.74,-1636,7335,-14758,-521,-40,-60,-210,-145,-65,177
,1342,2016/11/29 07:26:57.75,-1657,7297,-14689,-626,-48,-118,-181,-124,-57,152
,1343,2016/11/29 07:26:57.76,-1619,7294,-14756,-670,-80,-134,-244,-187,-57,215
,1344,2016/11/29 07:26:57.77,-1724,7302,-14836,-638,-116,-170,-156,-121,-35,138
,1345,2016/11/29 07:26:57.78,-1651,7260,-14850,-616,-169,-189,-212,-188,-24,200
,1346,2016/11/29 07:26:57.79,-1669,7328,-14734,-551,-178,-180,-180,-156,-24,168
,1347,2016/11/29 07:26:57.80,-1746,7364,-14729,-493,-182,-176,-167,-130,-37,148
,1348,2016/11/29 07:26:57.81,-1742,7349,-14664,-442,-181,-161,-232,-176,-56,204
,1349,2016/11/29 07:26:57.82,-1707,7304,-14707,-403,-150,-128,-172,-118,-54,145
,1350,2016/11/29 07:26:57.83,-1721,7363,-14675,-364,-143,-101,-253,-212,-41,232
,1351,2016/11/29 07:26:57.84,-1747,7418,-14731,-368,-94,-49,-220,-175,-45,197
,1352,2016/11/29 07:26:57.85,-1748,7429,-14668,-379,-87,-14,-179,-153,-26,166
,1353,2016/11/29 07:26:57.86,-1780,7432,-14703,-371,-23,20,-237,-218,-19,227
,1354,2016/11/29 07:26:57.87,-1684,7475,-14696,-354,-2,48,-137,-147,10,142
,1355,2016/11/29 07:26:57.88,-1683,7514,-14674,-312,29,61,-199,-205,6,202
,1356,2016/11/29 07:26:57.89,-1680,7484,-14731,-264,44,40,-182,-162,-20,172
,1357,2016/11/29 07:26:57.90,-1772,7551,-14755,-228,50,46,-194,-148,-46,171
,1358,2016/11/29 07:26:57.91,-1756,7522,-14690,-195,38,34,-273,-219,-54,246
,1359,2016/11/29 07:26:57.92,-1714,7514,-14701,-190,32,26,-161,-143,-18,152
,1360,2016/11/29 07:26:57.93,-1741,7500,-14729,-172,29,35,-221,-199,-22,210
,1361,2016/11/29 07:26:57.94,-1703,7437,-14759,-179,3,37,-188,-151,-37,169
,1362,2016/11/29 07:26:57.95,-1774,7335,-14726,-141,0,56,-166,-131,-35,148
,1363,2016/11/29 07:26:57.96,-1739,7419,-14706,-92,-33,76,-238,-191,-47,214
,1364,2016/11/29 07:26:57.97,-1744,7459,-14672,-109,-10,105,-180,-134,-46,157
,1365,2016/11/29 07:26:57.98,-1794,7429,-14653,-101,69,128,-256,-216,-40,236
,1366,2016/11/29 07:26:57.99,-1697,7453,-14681,-102,77,145,-249,-197,-52,223
,1367,2016/11/29 07:26:58.00,-1707,7431,-14774,-66,104,163,-204,-182,-22,193
,1368,2016/11/29 07:26:58.01,-1658,7386,-14732,-60,122,188,-242,-229,-13,235
,1369,2016/11/29 07:26:58.02,-1798,7485,-14774,-4,104,200,-128,-121,-7,124
,1370,2016/11/29 07:26:58.03,-1793,7436,-14748,52,114,218,-193,-176,-17,184
,1371,2016/11/29 07:26:58.04,-1747,7445,-14734,113,92,223,-168,-127,-41,147
,1372,2016/11/29 07:26:58.05,-1719,7381,-14769,149,89,214,-158,-119,-39,138
,1373,2016/11/29 07:26:58.06,-1669,7379,-14776,194,78,209,-238,-201,-37,219
,1374,2016/11/29 07:26:58.07,-1765,7366,-14784,234,58,225,-159,-115,-44,137
,1375,2016/11/29 07:26:58.08,-1706,7367,-14723,264,17,209,-221,-167,-54,194
,1376,2016/11/29 07:26:58.09,-1711,7288,-14696,289,27,212,-187,-123,-64,155
,1377,2016/11/29 07:26:58.10,-1771,7232,-14693,313,35,218,-149,-118,-31,133
,1378,2016/11/29 07:26:58.11,-1730,7116,-14728,363,35,234,-222,-213,-9,217
,1379,2016/11/29 07:26:58.12,-1647,7049,-14712,402,55,258,-154,-144,-10,149
,1380,2016/11/29 07:26:58.13,-1801,7061,-14767,426,67,265,-224,-186,-38,205
,1381,2016/11/29 07:26:58.14,-1723,7020,-14834,461,79,275,-224,-171,-53,197
,1382,2016/11/29 07:26:58.15,-1735,7127,-14896,463,99,271,-225,-175,-50,200
,1383,2016/11/29 07:26:58.16,-1653,7159,-14956,422,148,222,-314,-264,-50,289
,1384,2016/11/29 07:26:58.17,-1652,7208,-14927,393,145,153,-227,-182,-45,204
,1385,2016/11/29 07:26:58.18,-1731,7292,-14884,408,121,30,-257,-218,-39,237
,1386,2016/11/29 07:26:58.19,-1624,7405,-14880,401,146,-117,-188,-146,-42,167
,1387,2016/11/29 07:26:58.20,-1467,7474,-14767,384,184,-280,-156,-112,-44,134
,1388,2016/11/29 07:26:58.21,-1441,7554,-14714,348,300,-523,-244,-201,-43,222
,1389,2016/11/29 07:26:58.22,-1329,7644,-14652,249,419,-745,-200,-156,-44,178
,1390,2016/11/29 07:26:58.23,-1355,7559,-14684,146,512,-917,-259,-231,-28,245
,1391,2016/11/29 07:26:58.24,-1443,7559,-14792,84,533,-1085,-197,-199,2,198
,1392,2016/11/29 07:26:58.25,-1469,7520,-14884,-25,508,-1190,-153,-157,4,155
,1393,2016/11/29 07:26:58.26,-1655,7432,-14903,-111,443,-1198,-222,-224,2,223
,1394,2016/11/29 07:26:58.27,-1742,7374,-14903,-188,370,-1162,-148,-160,12,154
,1395,2016/11/29 07:26:58.28,-1745,7279,-14821,-190,238,-1021,-226,-227,1,226
,1396,2016/11/29 07:26:58.29,-1793,7267,-14749,-157,132,-872,-235,-240,5,237
,1397,2016/11/29 07:26:58.30,-1775,7237,-14717,-128,50,-686,-224,-230,6,227
,1398,2016/11/29 07:26:58.31,-1815,7240,-14711,-55,-24,-520,-287,-293,6,290
,1399,2016/11/29 07:26:58.32,-1783,7198,-14711,57,-29,-354,-178,-200,22,189
,1400,2016/11/29 07:26:58.33,-1818,7140,-14758,171,-45,-187,-202,-225,23,213
,1401,2016/11/29 07:26:58.34,-1847,7218,-14696,336,-52,-2,-179,-194,15,186
,1402,2016/11/29 07:26:58.35,-1827,7099,-14699,509,-37,183,-170,-174,4,172
,1403,2016/11/29 07:26:58.36,-1826,7173,-14806,669,0,341,-260,-265,5,262
,1404,2016/11/29 07:26:58.37,-1908,7208,-14707,815,64,489,-187,-210,23,198
,1405,2016/11/29 07:26:58.38,-1863,7188,-14747,937,125,596,-222,-255,33,238
,1406,2016/11/29 07:26:58.39,-1774,7235,-14666,1037,224,688,-193,-237,44,215
,1407,2016/11/29 07:26:58.40,-1729,7325,-14647,1069,346,728,-171,-201,30,186
,1408,2016/11/29 07:26:58.41,-1712,7391,-14652,1092,521,715,-225,-246,21,235
,1409,2016/11/29 07:26:58.42,-1737,7440,-14787,1093,631,674,-101,-151,50,126
,1410,2016/11/29 07:26:58.43,-1760,7422,-14836,1103,751,605,-152,-198,46,175
,1411,2016/11/29 07:26:58.44,-1768,7410,-14781,1140,715,543,-149,-188,39,168
,1412,2016/11/29 07:26:58.45,-1704,7413,-14820,1145,776,469,-141,-157,16,149
,1413,2016/11/29 07:26:58.46,-1670,7354,-14853,1170,797,404,-233,-239,6,236
,1414,2016/11/29 07:26:58.47,-1512,7311,-14800,1213,784,314,-128,-157,29,142
,1415,2016/11/29 07:26:58.48,-1537,7271,-14818,1231,877,217,-174,-191,17,182
,1416,2016/11/29 07:26:58.49,-1492,7214,-14798,1271,895,106,-159,-168,9,163
,1417,2016/11/29 07:26:58.50,-1340,7186,-14773,1299,910,-1,-119,-134,15,126
,1418,2016/11/29 07:26:58.51,-1382,7220,-14820,1270,1045,-121,-190,-194,4,192
,1419,2016/11/29 07:26:58.52,-1353,7169,-14750,1276,1028,-239,-146,-136,-10,141
,1420,2016/11/29 07:26:58.53,-1141,7165,-14879,1245,1133,-339,-228,-199,-29,213
,1421,2016/11/29 07:26:58.54,-1255,7087,-14992,1207,1048,-429,-223,-188,-35,205
,1422,2016/11/29 07:26:58.55,-1240,7066,-15138,1169,1025,-521,-162,-150,-12,156
,1423,2016/11/29 07:26:58.56,-1398,6965,-15182,1020,1054,-560,-215,-225,10,220
,1424,2016/11/29 07:26:58.57,-1279,6975,-15063,947,869,-597,-120,-155,35,137
,1425,2016/11/29 07:26:58.58,-1303,6907,-15084,886,707,-551,-178,-198,20,188
,1426,2016/11/29 07:26:58.59,-1365,6785,-15096,840,667,-493,-172,-173,1,172
,1427,2016/11/29 07:26:58.60,-1332,6596,-15065,846,457,-395,-156,-147,-9,151
,1428,2016/11/29 07:26:58.61,-1415,6641,-15125,839,421,-280,-266,-250,-16,258
,1429,2016/11/29 07:26:58.62,-1469,6667,-15227,804,326,-140,-201,-184,-17,192
,1430,2016/11/29 07:26:58.63,-1483,6739,-15243,767,260,-42,-218,-220,2,219
,1431,2016/11/29 07:26:58.64,-1369,6753,-15256,719,122,54,-125,-165,40,145
,1432,2016/11/29 07:26:58.65,-1409,6761,-15181,675,48,135,-92,-111,19,101
,1433,2016/11/29 07:26:58.66,-1396,6803,-15229,669,-31,169,-214,-196,-18,205
,1434,2016/11/29 07:26:58.67,-1433,6832,-15226,644,-138,222,-152,-135,-17,143
,1435,2016/11/29 07:26:58.68,-1335,6725,-15150,632,-215,231,-168,-180,12,174
,1436,2016/11/29 07:26:58.69,-1326,6678,-15074,710,-273,252,-117,-173,56,145
,1437,2016/11/29 07:26:58.70,-1429,6687,-15221,721,-180,260,-101,-159,58,130
,1438,2016/11/29 07:26:58.71,-1369,6615,-15214,732,-197,263,-196,-235,39,215
,1439,2016/11/29 07:26:58.72,-1520,6603,-15251,748,-69,288,-105,-143,38,124
,1440,2016/11/29 07:26:58.73,-1423,6564,-15202,752,-122,301,-137,-176,39,156
,1441,2016/11/29 07:26:58.74,-1408,6653,-15112,757,-17,289,-113,-168,55,140
,1442,2016/11/29 07:26:58.75,-1329,6651,-15106,728,63,266,-125,-165,40,145
,1443,2016/11/29 07:26:58.76,-1311,6673,-15115,711,130,213,-241,-264,23,252
,1444,2016/11/29 07:26:58.77,-1261,6558,-15097,716,263,155,-179,-204,25,191
,1445,2016/11/29 07:26:58.78,-1332,6473,-15083,731,381,87,-222,-246,24,234
,1446,2016/11/29 07:26:58.79,-1266,6440,-15171,785,444,53,-154,-184,30,169
,1447,2016/11/29 07:26:58.80,-1150,6366,-15089,834,525,3,-81,-126,45,103
,1448,2016/11/29 07:26:58.81,-1180,6278,-15203,841,595,-30,-180,-219,39,199
,1449,2016/11/29 07:26:58.82,-1112,6320,-15281,862,611,-53,-130,-159,29,144
,1450,2016/11/29 07:26:58.83,-1120,6236,-15314,831,655,-101,-194,-208,14,201
,1451,2016/11/29 07:26:58.84,-1039,6165,-15400,812,600,-121,-188,-198,10,193
,1452,2016/11/29 07:26:58.85,-1040,6215,-15410,824,569,-156,-147,-151,4,149
,1453,2016/11/29 07:26:58.86,-980,6210,-15425,821,456,-202,-222,-222,0,222
,1454,2016/11/29 07:26:58.87,-931,6202,-15435,825,419,-261,-137,-146,9,141
,1455,2016/11/29 07:26:58.88,-1004,6206,-15467,804,471,-312,-165,-191,26,178
,1456,2016/11/29 07:26:58.89,-969,6099,-15457,846,212,-347,-128,-176,48,152
,1457,2016/11/29 07:26:58.90,-1048,6117,-15458,853,231,-414,-115,-151,36,133
,1458,2016/11/29 07:26:58.91,-812,6065,-15475,878,160,-465,-222,-237,15,229
,1459,2016/11/29 07:26:58.92,-977,5895,-15471,880,34,-522,-127,-171,44,149
,1460,2016/11/29 07:26:58.93,-1016,6128,-15535,901,152,-603,-172,-198,26,185
,1461,2016/11/29 07:26:58.94,-1051,5946,-15492,897,-13,-664,-170,-159,-11,164
,1462,2016/11/29 07:26:58.95,-1022,5977,-15544,901,-21,-758,-156,-120,-36,138
,1463,2016/11/29 07:26:58.96,-1127,6086,-15471,882,30,-825,-242,-204,-38,223
,1464,2016/11/29 07:26:58.97,-1089,6022,-15484,850,-101,-944,-168,-145,-23,156
,1465,2016/11/29 07:26:58.98,-1130,6013,-15430,826,-44,-1001,-194,-198,4,196
,1466,2016/11/29 07:26:58.99,-1210,5998,-15556,810,-233,-1077,-140,-172,32,156
,1467,2016/11/29 07:26:59.00,-1196,5977,-15447,771,-283,-1119,-118,-122,4,120
,1468,2016/11/29 07:26:59.01,-1229,5860,-15407,756,-352,-1145,-228,-198,-30,213
,1469,2016/11/29 07:26:59.02,-1277,5811,-15366,749,-324,-1187,-135,-123,-12,129
,1470,2016/11/29 07:26:59.03,-1205,5750,-15192,831,-456,-1195,-174,-164,-10,169
,1471,2016/11/29 07:26:59.04,-1428,5689,-15233,878,-404,-1169,-183,-170,-13,176
,1472,2016/11/29 07:26:59.05,-1465,5611,-15277,971,-539,-1167,-145,-147,2,146
,1473,2016/11/29 07:26:59.06,-1449,5605,-15370,966,-554,-1094,-236,-232,-4,234
,1474,2016/11/29 07:26:59.07,-1577,5489,-15428,919,-613,-1038,-186,-182,-4,184
,1475,2016/11/29 07:26:59.08,-1621,5426,-15391,833,-636,-963,-208,-216,8,212
,1476,2016/11/29 07:26:59.09,-1551,5419,-15536,736,-677,-871,-138,-163,25,150
,1477,2016/11/29 07:26:59.10,-1471,5368,-15456,627,-706,-783,-112,-117,5,114
,1478,2016/11/29 07:26:59.11,-1502,5348,-15353,506,-715,-697,-219,-205,-14,212
,1479,2016/11/29 07:26:59.12,-1570,5416,-15341,392,-713,-627,-160,-136,-24,148
,1480,2016/11/29 07:26:59.13,-1517,5463,-15374,241,-607,-554,-186,-174,-12,180
,1481,2016/11/29 07:26:59.14,-1562,5415,-15278,107,-585,-488,-152,-164,12,158
,1482,2016/11/29 07:26:59.15,-1668,5401,-15331,-22,-441,-397,-82,-114,32,98
,1483,2016/11/29 07:26:59.16,-1667,5417,-15285,-178,-384,-345,-151,-170,19,160
,1484,2016/11/29 07:26:59.17,-1752,5504,-15230,-254,-302,-266,-113,-100,-13,106
,1485,2016/11/29 07:26:59.18,-1612,5577,-15188,-385,-223,-193,-196,-161,-35,178
,1486,2016/11/29 07:26:59.19,-1679,5638,-15235,-513,-105,-134,-181,-158,-23,169
,1487,2016/11/29 07:26:59.20,-1758,5651,-15241,-586,-22,-89,-134,-137,3,135
,1488,2016/11/29 07:26:59.21,-1738,5643,-15325,-628,42,-65,-226,-229,3,227
,1489,2016/11/29 07:26:59.22,-1655,5728,-15310,-617,93,-33,-193,-184,-9,188
,1490,2016/11/29 07:26:59.23,-1701,5838,-15329,-626,152,-56,-247,-216,-31,231
,1491,2016/11/29 07:26:59.24,-1697,5916,-15288,-621,200,-82,-192,-163,-29,177
,1492,2016/11/29 07:26:59.25,-1707,5987,-15446,-632,258,-140,-119,-99,-20,109
,1493,2016/11/29 07:26:59.26,-1642,6080,-15473,-631,282,-216,-195,-168,-27,181
,1494,2016/11/29 07:26:59.27,-1631,6142,-15556,-615,266,-291,-138,-113,-25,125
,1495,2016/11/29 07:26:59.28,-1767,6087,-15561,-588,211,-374,-172,-158,-14,165
,1496,2016/11/29 07:26:59.29,-1668,6119,-15547,-525,203,-458,-155,-140,-15,147
,1497,2016/11/29 07:26:59.30,-1746,6126,-15539,-447,195,-543,-101,-87,-14,94
,1498,2016/11/29 07:26:59.31,-1756,6036,-15434,-377,170,-609,-169,-154,-15,161
,1499,2016/11/29 07:26:59.32,-1825,5981,-15439,-296,178,-646,-118,-97,-21,107
,1500,2016/11/29 07:26:59.33,-1790,5972,-15420,-224,184,-656,-163,-157,-6,160
,1501,2016/11/29 07:26:59.34,-1633,5938,-15414,-143,188,-660,-128,-145,17,136
,1502,2016/11/29 07:26:59.35,-1699,5877,-15358,-90,225,-644,-95,-103,8,99
,1503,2016/11/29 07:26:59.36,-1714,5905,-15425,-61,267,-595,-202,-190,-12,196
,1504,2016/11/29 07:26:59.37,-1683,5835,-15417,-66,280,-544,-122,-105,-17,113
,1505,2016/11/29 07:26:59.38,-1742,5842,-15444,-105,296,-488,-167,-146,-21,156
,1506,2016/11/29 07:26:59.39,-1701,5859,-15487,-151,268,-428,-204,-181,-23,192
,1507,2016/11/29 07:26:59.40,-1716,5883,-15474,-217,242,-368,-184,-167,-17,175
,1508,2016/11/29 07:26:59.41,-1709,5861,-15477,-301,225,-294,-265,-245,-20,255
,1509,2016/11/29 07:26:59.42,-1740,5825,-15417,-355,192,-219,-173,-161,-12,167
,1510,2016/11/29 07:26:59.43,-1719,5871,-15445,-389,141,-155,-206,-178,-28,192
,1511,2016/11/29 07:26:59.44,-1775,5827,-15498,-391,97,-88,-207,-164,-43,185
,1512,2016/11/29 07:26:59.45,-1709,5848,-15480,-405,36,-22,-161,-120,-41,140
,1513,2016/11/29 07:26:59.46,-1771,5849,-15462,-387,-2,28,-225,-190,-35,207
,1514,2016/11/29 07:26:59.47,-1683,5950,-15346,-381,-37,89,-167,-141,-26,154
,1515,2016/11/29 07:26:59.48,-1731,5966,-15365,-394,-47,108,-214,-186,-28,200
,1516,2016/11/29 07:26:59.49,-1667,5986,-15387,-393,-70,141,-188,-152,-36,170
,1517,2016/11/29 07:26:59.50,-1588,6020,-15475,-382,-109,146,-130,-96,-34,113
,1518,2016/11/29 07:26:59.51,-1700,6011,-15534,-383,-113,149,-214,-185,-29,199
,1519,2016/11/29 07:26:59.52,-1595,5987,-15466,-391,-165,162,-161,-130,-31,145
,1520,2016/11/29 07:26:59.53,-1722,6032,-15462,-387,-214,163,-202,-174,-28,188
,1521,2016/11/29 07:26:59.54,-1648,6040,-15428,-389,-224,139,-186,-163,-23,174
,1522,2016/11/29 07:26:59.55,-1643,6053,-15336,-379,-284,139,-130,-114,-16,122
,1523,2016/11/29 07:26:59.56,-1724,6034,-15422,-342,-274,118,-196,-177,-19,186
,1524,2016/11/29 07:26:59.57,-1686,6066,-15424,-275,-294,100,-110,-84,-26,97
,1525,2016/11/29 07:26:59.58,-1650,6085,-15437,-228,-335,87,-170,-135,-35,152
,1526,2016/11/29 07:26:59.59,-1645,6082,-15430,-198,-357,82,-193,-155,-38,174
,1527,2016/11/29 07:26:59.60,-1643,5986,-15374,-176,-373,92,-163,-132,-31,147
,1528,2016/11/29 07:26:59.61,-1738,5973,-15374,-169,-424,97,-258,-227,-31,242
,1529,2016/11/29 07:26:59.62,-1712,6015,-15409,-160,-426,116,-191,-168,-23,179
,1530,2016/11/29 07:26:59.63,-1773,5950,-15384,-166,-413,135,-209,-193,-16,201
,1531,2016/11/29 07:26:59.64,-1700,5933,-15314,-173,-439,181,-169,-165,-4,167
,1532,2016/11/29 07:26:59.65,-1632,5953,-15281,-161,-420,207,-123,-113,-10,118
,1533,2016/11/29 07:26:59.66,-1628,6038,-15329,-166,-415,223,-217,-194,-23,205
,1534,2016/11/29 07:26:59.67,-1665,5994,-15345,-150,-368,256,-163,-130,-33,146
,1535,2016/11/29 07:26:59.68,-1670,5972,-15274,-150,-366,265,-194,-164,-30,179
,1536,2016/11/29 07:26:59.69,-1771,5972,-15326,-144,-327,288,-160,-137,-23,148
,1537,2016/11/29 07:26:59.70,-1693,6038,-15313,-147,-298,283,-112,-88,-24,100
